timestamp_s,accel_x,accel_y,accel_z,gyro_x,gyro_y,gyro_z
0.0,-0.058361232767276366,-0.011061144093694773,9.861324587135542,0.013577640946102889,-0.0011727668729500137,0.002579123810763123
0.01,0.028238856422541037,0.06198334801938707,9.771951537517593,0.008675265074234611,-0.002320863471246697,0.0014211483435116736
0.02,-0.07874059852317797,-0.15188528549685082,9.67151601470665,0.0031509467870651582,-0.005071705606241653,0.005320999321968574
0.03,-0.17073852534345668,-0.11121860823945529,9.92676126434894,0.004833368893243246,0.00032631604108350926,-0.003374035692468161
0.04,-0.1416458439438848,0.01122803294033649,9.717429766784198,0.007840552836446616,-0.0030182933803384313,0.0022911561015545945
0.05,-0.14622998927263525,0.15112499722677675,9.808429333761179,0.0006732668372915708,0.00409384972058144,-0.002354696754625181
0.06,-0.08138221464567992,-0.15324237723352793,9.70325405521548,0.006945832789232331,0.0036696831998512167,0.004606236579282899
0.07,-0.10734061443688965,-0.01996860454903708,9.691226975916653,0.002361957088822194,-0.0023296183563164393,0.009034857016666864
0.08,-0.07059634593831521,-0.1363350999967327,9.83543521735573,0.004035364645825393,-0.0034148092358375513,0.006807455077028835
0.09,-0.015602512232036875,0.07979890091149326,9.7423708312529,0.004414258485551393,0.001622343268324177,0.00862660405171323
0.1,-0.1364126856705524,-0.008967895482079354,9.721001137155534,-2.1222034840963876e-05,0.004024880657099409,0.010529860379403833
0.11,-0.10383543667877268,0.08675573277375011,9.838438487715342,0.0027336494416894605,0.001765455104504878,0.011438601927780692
0.12,-0.10093619810523312,0.13223281342549875,9.599927636702756,0.01006814427916311,0.0003899380578066162,0.002253118241891873
0.13,-0.09072434861040468,-0.15135603575845474,9.79193310201812,0.0077435245763363345,0.00734039869760209,0.0011565168430438056
0.14,-0.1627394024738356,-0.03190299849146534,9.882738599188345,0.007600993653462821,-0.002701646660227542,0.006313895083276221
0.15,-0.09028802157718055,0.08631717766586786,9.753341727717219,0.0043181501899140036,-0.0020171603850950306,-0.003570349794726238
0.16,-0.07435852243875644,0.030297934174310273,9.809914565959703,0.004782694512050538,-0.00713724716067155,0.0016436424072157792
0.17,-0.12545883282553472,-0.05418081990518249,9.796602115460297,0.007975000164718542,0.009366762381518635,0.004619379209283912
0.18,-0.07743077499149921,0.004633447567794114,9.656002726919212,0.00582123865870447,0.00023321041774307442,0.016062298882832646
0.19,-0.11341642605164669,0.03530057208500928,9.806726903121666,0.00010942646510936089,0.005642400109689141,0.007505328712681178
0.2,-0.034737343628479814,-0.06098664843369356,9.92172677895563,-0.001057483572701889,0.0028587983615159097,0.01469749396319293
0.21,-0.17725476385866423,-0.03295201307389012,9.817474701521625,0.003433295038848858,-0.007832577211268999,0.004087560051753387
0.22,-0.18298772136825855,0.050826545893977296,9.735947980685708,0.013699193392605058,-0.003999299260101181,0.0021339440017241586
0.23,-0.032913221301957216,-0.0849427642058296,9.827698010204385,0.012484029697210767,-0.008124221497908968,0.00466690434479175
0.24,-0.07719475760770891,0.07665931874724785,9.710544423506391,-0.00065522607039371,0.0025191302019274835,0.005228118955056372
0.25,-0.07793634364751519,0.042416326606107765,9.755097736548192,0.007107013072240693,0.0013710126747435154,0.00017087610607016907
0.26,0.051296190578815834,0.05319395202149494,9.714194637382846,0.009227146754899948,-0.004971529863182333,0.007677470896080717
0.27,-0.005267730779722132,-0.04978055623946756,9.886568179400637,0.008006864017780809,0.004008407722766776,0.013225404549097776
0.28,-0.11757564135962464,-0.043838295943655764,9.738336075642415,0.0018624351883731417,-0.0004911729244586132,0.005446568349236853
0.29,-0.07579815134673197,0.08322167691978777,9.810536491396473,0.013207630800962353,-0.0014327195689376791,0.017341000232000935
0.3,-0.0478684589650232,-0.050939321187876974,9.723824019351817,0.008350742878856109,-0.0012305200700656516,0.007309479881828351
0.31,-0.06005087663904226,0.012393077900207015,9.74175097005385,-0.0016374883337437057,-0.0023495513499368027,0.008020771487692969
0.32,-0.08077003526665004,-0.0808537678143727,9.823347959058829,0.007861648289524757,-0.004540033912394025,0.004506680247015072
0.33,-0.09322809393635764,-0.07204651506636844,9.838115460536645,0.008737244253111042,0.005290739656939694,0.009006319279423903
0.34,-0.2080852059373654,-0.05504929472127261,9.850694249069182,0.008500458250935473,0.00244695236914672,0.0230001978796157
0.35000000000000003,-0.0521868892604183,0.11140737956087252,9.885810494061516,0.00918663828872016,-0.0017084014550636443,0.007530595045546987
0.36,-0.15967022947435344,0.0022018745742367445,9.770660163792556,0.006337152942124522,0.011437468775867215,-0.005601391388843999
0.37,-0.04292908791291975,-0.10728486219063169,9.771733562382382,0.011370582137165072,0.0001818075660541419,-0.0016546265654180216
0.38,-0.15503949940848813,0.07668507616779055,9.751057614568394,0.007006115718931146,8.449856176833011e-05,0.0004752354603114405
0.39,0.07371541620146448,0.0736154258793551,9.64747434111189,0.006854034693018692,-0.003456060696440606,0.007994520875484997
0.4,-0.1611862871084585,0.014307430446743697,9.849883502826277,0.01024842618600449,-0.006152377759356637,0.0020589421597013353
0.41000000000000003,-0.13576437889032306,-0.028195762603613464,9.950719601765561,0.007942392632622945,-0.0064590824539699715,0.008319829351142862
0.42,0.0720200068621596,0.10725181039320063,9.68793237692233,0.003494094362158097,0.006176126508581852,0.00019122070975494902
0.43,-0.062230278551398725,0.0872091054215055,9.735326217797947,0.005615365400657973,-0.016368532079689087,-0.0013933445962351619
0.44,-0.1179242378882418,-0.07400070901616548,9.940072210885027,-0.001240040428277885,-0.002366183531848779,0.004381299225786616
0.45,0.017600515237194456,-0.08846369461701391,9.902531027561917,0.005959452894010883,-0.005077269639737929,0.006037093601784074
0.46,-0.08175874356086765,-0.021028978467850158,9.815060684833592,0.003979287600043989,0.00039409549842855615,0.0070361866623696095
0.47000000000000003,0.029216045487594183,-0.07145401693170492,9.9801177485319,-0.0038570685280707416,-0.0009361810936062619,0.006666053555796699
0.48,-0.07516734033401426,-0.02166213554646074,9.79282382899141,0.0034358275933564133,-0.003127843331091583,0.007971389422663053
0.49,-0.06906645025030828,-0.026696591966450786,9.881440099507442,0.007434738602706763,0.0038795275924763234,0.006870411748330822
0.5,-0.16392789887786535,-0.015496216638065868,9.869254068385398,0.008947448014846404,-0.00029305394435220135,0.0043077702499124074
0.51,0.004624675202953232,-0.01742561753787012,9.853236811080789,0.004881936096138237,-0.001280714470998623,0.009213860588125322
0.52,-0.03153503665563612,0.09556242227068744,9.91390573594014,0.005995168242437634,0.003213694423716332,0.002167462747006477
0.53,-0.07161447422936103,0.02065149045794757,9.817225489578012,0.008863130867299028,-0.004290935314427844,0.01417953032408135
0.54,-0.1780082206235948,-0.06549115043661743,9.90211303356197,0.009842802970653925,0.002917006243857376,0.006858096128618052
0.55,-0.098485229511763,-0.03955569222136309,9.81552684999692,0.0024957717843696486,0.0046682454148732865,0.0029798335395911646
0.56,-0.16352353099835526,0.007094218980751368,9.842495293763683,0.0030599955253216462,-0.004322215098551098,0.004932285604863526
0.5700000000000001,-0.07786430721465844,-0.007170234221887312,9.771775975538938,0.0070358530562874754,-0.007455294144415836,-0.003324762981211658
0.58,-0.1549146584178737,0.016889280622597303,9.834329878356522,0.013249316694049235,0.004069666925154996,0.002911546834688242
0.59,-0.09893751542015931,-0.04565776922249045,9.807974425971159,0.004426121841516708,0.0013912034291917235,-0.0004262543811189481
0.6,-0.055845206066439335,0.15774290919805364,9.800752839406675,0.007874800288282182,0.0032245729867004724,0.001702436095523281
0.61,-0.07944184751935111,0.03671008823591151,9.817265884360959,0.0019979666433460556,-0.00010735310761797833,0.006197145303665425
0.62,0.018746313165608486,0.11302294087064928,9.981704509104434,0.002022998904967103,0.004127942799951104,0.00462245655092873
0.63,0.07786351917399535,-0.027804336047532748,9.74227025206074,0.0028594419501719592,-0.010856894797596888,0.0010755413792156534
0.64,-0.15802647916256213,0.049468949877189625,9.836786535408029,0.015233875162380076,0.004510947844864353,0.000818345473677953
0.65,-0.16914380152977482,0.07736856383657381,9.703825429748665,0.01500687794559772,0.005652274719940991,0.001355510063362994
0.66,-0.23429576266253233,0.14690206098561462,9.800278898784338,0.012035176217997934,-0.008220818072769786,0.0007030150972116671
0.67,-0.09679948790335938,0.042927612072966685,9.773434819987298,0.008956802284584293,-0.005590535168320376,0.0029864719999704924
0.68,-0.0875689280256452,0.08090081220581533,9.86636719053888,0.00021574758288621203,-0.00792675645510789,0.010085210081606753
0.6900000000000001,-0.0705806635278344,-0.019557034334131432,9.933528072284052,0.006413684119351362,0.005636548411525983,0.0040328522692146115
0.7000000000000001,0.06772123223178618,0.18132497610833198,9.789516667759164,0.010689466127591842,0.0029631910145078992,0.010536828892093411
0.71,-0.17430490733541776,0.09635727746497057,9.894105615506966,-0.0029658380822341285,-0.006183731828544618,-0.006504101180544947
0.72,-0.11863561754272901,0.0994516197305834,9.929618049257073,0.006194528814645071,0.007871888633765442,-0.0032100816079669997
0.73,-0.23332531791345623,0.03817912342980254,9.840152521227518,0.005656724354286597,-0.010612148710138252,0.0032431688410283453
0.74,-0.20138354657639504,0.09677105962201474,9.838752917000503,0.001116889999287299,-0.0028480211893299754,-0.0016089778249965422
0.75,-0.10201118999681828,0.12018256885934625,9.730564717469587,0.008332560033513785,-0.002933722353954746,-0.00027897623076523267
0.76,-0.1055297787147451,-0.038474669107500074,9.765128572562608,-0.0001810757578416429,0.009537444486435223,0.0038599812467501075
0.77,-0.15291549040367622,0.06203624381192442,9.800431960867412,0.004699399716602428,0.002780906159546831,0.007469455013856992
0.78,-0.13934725368103928,-0.0005748783901474083,9.787411729050337,-0.005709476303978709,-0.007869628050508152,0.010514518208226459
0.79,0.03472093071682282,0.026140018090678997,9.855538054064448,0.0073522099308548534,0.015096986677750638,0.009276229276617733
0.8,-0.10707883067864549,-0.029808428265446815,9.680895395905923,0.0068090548461266324,-0.00408291493195647,-0.0034347285285087495
0.81,-0.148539803726528,-0.0393175473936749,9.944380009240279,0.010195660868079794,-0.0003447674589515961,0.011074423476227217
0.8200000000000001,-0.09059267075806056,-0.021125382256759452,9.931256154018833,0.008477685664324656,-0.005494877266474223,0.0027211496267208948
0.8300000000000001,-0.16679937090651076,-0.06227599377300599,9.883497953631927,0.015325839995450372,-0.0073052257918575034,0.006485806919952472
0.84,-0.1487687044433141,0.009948149621578722,9.762009730567346,0.0014543723155954593,-7.352038620071509e-05,-0.00048569463112891785
0.85,-0.07504775427140539,0.045468886816698556,9.790282868215744,0.001232025287908627,-0.0032037249469601113,0.0074440848007472984
0.86,-0.0565775400184095,-0.028147174258856773,9.817342736737224,0.009522244752319041,-0.008670633622726945,0.006381979871808247
0.87,-0.14962704384644077,0.09627399794268163,9.748332833095267,-0.0032636876868401476,-0.008465057474113233,0.003903631410568121
0.88,-0.07580518463836175,-0.021150822165771195,9.860478348714375,-0.0025515156292408867,-0.000661481479845109,-0.002393869013538714
0.89,-0.14869532872504856,0.05555434407585792,9.740555242361536,0.0038286170525578707,0.004696645233471157,0.0007747354980594499
0.9,-0.029658140278087178,-0.03804662144587246,9.851769978669951,0.012954496236425991,-0.012696776753049336,-0.00032732100702444764
0.91,-0.05031242216858842,0.03665330151954147,9.839074620542217,0.0027219338691197533,9.0660141593039e-05,0.002876707094265493
0.92,-0.003019924608517535,0.07381712915944705,9.836388443361546,0.0036776299945492797,-0.002784053552756312,0.0014902179213973077
0.93,-0.06485022959061648,0.020350751238593486,9.832559472262442,0.016109122236980716,0.004005868365171563,0.0020207843895556983
0.9400000000000001,-0.0002728130329632261,0.021949041492563312,9.646324747909867,0.0006867385475769058,-0.0097074465493762,0.0018912054331083556
0.9500000000000001,-0.09485959682758857,0.18927512647669292,9.835526101443753,0.004626667800497643,0.0037898101070578723,-0.007409055263261424
0.96,-0.07744665754961308,0.1173939306098566,9.691082186611935,0.011435889531531747,0.0013315343319724407,0.0015680077789346565
0.97,-0.045635642773150194,0.23794421568934257,9.823915535432903,0.006953119691599555,-0.0026614811515324717,-0.000606970781240656
0.98,-0.029793311579754483,-0.011634353757221334,9.815088656891913,0.003318575590046121,0.002026494495224309,0.005308342974064871
0.99,-0.013178581334607156,0.016614093869125747,9.7877704602203,0.0008078389738934069,-0.002593597934551577,0.0055242939713533775
1.0,-0.035583902799416034,-0.015795283551434128,9.878926000136945,0.01247459028736678,0.0016913168706660523,0.0130195073175523
1.01,-0.15800695875409002,-0.041032419197218,9.667056952569212,0.013171314749830881,0.002892245624798498,0.0033553193522897207
1.02,-0.07366677901056615,-0.03093767901050111,10.005011751386332,0.006331840107169413,0.00016366731468691595,0.007259767995307538
1.03,-0.057543592621319764,0.07757312238798733,9.746110631814174,0.008037665841563582,0.009023092843228242,0.010355705006029507
1.04,0.03147092101332591,0.019325564920724153,9.730177172675296,0.005045928215930632,-0.00011212702754209762,0.009097210011226157
1.05,-0.23134047352728687,0.18314672105441063,9.796701871386198,0.003534945177921113,-0.005454994373728422,-0.0046504055388252395
1.06,-0.030048566702907842,0.06720746216815414,9.70614255131806,-0.0008116066215617121,-0.0020771158504861013,0.011966588620568768
1.07,-0.11662804820050568,-0.058350634362334564,9.789676873362508,0.004294555150624971,-0.013886344363067522,0.0033475876212385827
1.08,-0.11429364574731095,0.11815553093504746,9.957249676564148,0.011285333007312843,-0.00175007232271324,-0.0019160088298544216
1.09,0.11009214095514983,0.06775415407816471,9.810444378208631,0.005526166434387678,0.0005810782955387348,0.0028923552289448987
1.1,-0.14162698073341562,0.019825054389393942,9.806706594655132,0.0029239012257883893,-0.00397728996634451,0.0041438228309141675
1.11,-0.11608919152920269,0.1844497268169824,9.597246068670279,0.011092741805201606,0.00581365046907199,-0.006757787221890627
1.12,-0.12306263286085549,0.034970959193265976,9.696719490609796,0.0017402558762891832,-0.0059733680464925205,0.012367986263525678
1.1300000000000001,-0.020749582501386157,0.16696599451174984,9.867050940057016,-2.1838416304143654e-05,-0.003046802351077129,0.006050954832254275
1.1400000000000001,-0.19332992487819278,0.1228362324631813,9.790087867853662,0.0037433469372708285,0.003126887756591062,0.005822824451719895
1.1500000000000001,-0.12439245741748198,0.15909692116004637,9.722825534424008,0.00869110900794124,0.002533884286980769,0.0020511794695115635
1.16,-0.0693796043072631,-0.033184967662256815,9.883229439374615,0.004680849805887337,-0.003048945867018115,0.008841339485954182
1.17,-0.1517724413939108,-0.045219805969521965,9.684773597570958,0.008629289330561746,-0.006841185121020989,0.012367623891686094
1.18,-0.2619336171553751,0.20372597924971905,9.82618195898192,0.005109502725679615,-0.0031673402086708105,0.005586671128366
1.19,-0.09834397758585792,0.15682538017885023,9.818435380319748,0.006338355484073294,-0.0022645110631538774,0.0033035779783591995
1.2,-0.07066261542490461,-0.06770109914630508,9.701438918278749,0.009296895274661026,0.00040417316033519366,0.0026656829368785456
1.21,-0.09376521669837001,0.0974694292007315,9.766109538174238,0.0016827290973361478,0.0005253694268262028,-0.0013089927505060038
1.22,-0.06253250434395903,-0.06599390215997532,9.891619301201104,0.0079308679046436,0.0008225902250486706,0.00849357558953503
1.23,0.03809281805941704,0.15191165273989987,9.662013426522677,-0.0008364266675772369,-0.0035853517017081366,0.0037078034826023122
1.24,-0.05368444798578511,0.01325116685387702,9.824221198334326,0.0017780711404584036,-0.0035225469530858183,-0.0034587516451286197
1.25,-0.1689074810589852,-0.036276114105230114,9.731206466553308,0.010816672441744252,-0.005215650254692667,0.016733647833138687
1.26,-0.05553466086085125,0.08719287981550736,9.74060415159718,0.009043440590788323,-0.003350541550949149,0.0041789483308735205
1.27,0.10985577855970002,0.06526788172924118,9.901211065076911,0.00201938694035805,-0.0006509902075891356,0.012420042280085657
1.28,-0.14505886090095743,0.218494585425134,9.865885756653277,0.002716263255058643,0.002682296889429944,0.008425929306709828
1.29,-0.04510683148024258,-0.051573911351479484,9.751091008613118,0.004284282281150663,-0.0008556017067594063,0.006663613632374036
1.3,-0.08058530116560657,-0.03223878353515475,9.83967416978127,0.008568032825522959,0.0023118262290609043,0.008961231004913904
1.31,-0.028036982462903204,0.11186719898666439,9.803641422106004,-0.0027965215520379203,0.0016572749525686978,0.004592818209180675
1.32,-0.07297344244408463,-0.026463742262282056,9.722766471553786,0.010767176835755468,-0.0006922807172695454,0.006958913837514601
1.33,-0.09238289513249279,0.07859930489565092,9.88430999361262,0.0029142688799745787,-1.7588529779147385e-05,0.001237042682961883
1.34,-0.12935630063652695,0.05202702768446714,9.82701426394099,0.0030937799248891102,0.00577690209608106,-0.0009276303926095122
1.35,-0.10949419281665407,0.04212360574112158,9.924998044906166,0.00646327805027814,0.004653659408264098,-0.003885430520785614
1.36,-0.0731279206873077,0.1490131510372028,9.815818764264282,0.01080083786256469,-0.003095688926034405,0.010586052023023013
1.37,0.08947280521826882,0.04935549881392375,9.773592053537177,0.012733240940423819,0.0073849320483503535,0.0009219364338122309
1.3800000000000001,-0.12800071500621402,0.05637900562016275,9.701672403802728,0.0008658922016066316,-0.005537313126293784,-0.00030585122053949573
1.3900000000000001,-0.09710690806265602,0.09819743317697625,9.9332646530035,0.0004601659850754971,0.004401323491032015,0.0024600707254357093
1.4000000000000001,-0.09823518395752234,0.13398357891099272,9.719403000351214,0.007356720114374524,0.00030829474519672624,0.005989127932754466
1.41,-0.07109018868282377,0.27695907557257016,9.758197691587878,0.002782372807904573,-0.0036433452973088877,0.0007463210261487597
1.42,-0.14515986650416865,0.17619270675512244,9.92285333832276,0.002576263383669178,-0.004693095463905213,0.005877597774849994
1.43,-0.1382915793194761,0.1322415197914642,9.825442928361696,-0.002156137317317311,0.007202534922115679,0.012496700109869141
1.44,-0.1430812940268364,0.0511257050778171,9.832074386367449,0.007087406814747975,0.002754058250673127,0.013565104589104763
1.45,-0.10815806377452093,0.018812166394567245,9.698855665642194,0.001752963540717321,-0.0007079685362613413,0.012483619782181637
1.46,-0.13535490028421943,0.10111235394975529,9.807883401482439,0.011342022318764827,0.01208865937820509,0.0008532136069073935
1.47,-0.13304448677362615,0.16727481082071022,9.863744562288002,0.01462598619423345,0.002369970587117593,0.0017078024813728737
1.48,-0.04657990437873968,0.1729700961201441,9.874827808382552,0.007921164805932168,0.0047800370220115376,0.009347424827632664
1.49,0.01679784430770702,0.13670171109383933,9.795815759204752,0.006110659706533433,0.005475543833134025,-0.0005870690435969693
1.5,-0.06422321931545087,0.05386816212835006,9.811480744338706,0.011761598819251859,0.00039483129120303456,0.0037264330035630985
1.51,-0.2024474094935837,0.1455651312660724,9.860815827156243,0.0161778130316491,-0.002103216738113901,0.004586621387850349
1.52,-0.07364968308075792,0.2125899143095113,9.801549365679739,0.006748798699549883,0.0024714970168848473,0.004420513407290296
1.53,-0.12925615211070954,0.10244887962068815,9.895059445468133,0.00021321804593245862,9.320442787353982e-05,-1.6559665928231153e-05
1.54,0.0021215563560534056,-0.03440602636995434,9.764451036668135,0.007223909277786417,0.007252319360431714,0.0031518483161219377
1.55,-0.13783847318396775,0.2384679502101917,9.693319533308594,-0.0056641725630705115,0.0016211162010450206,0.0009668623282093219
1.56,-0.17506109982744678,0.14516956716120033,9.828660545417518,0.00250142341333482,-0.0069841317155309,0.007835932556057973
1.57,-0.0412859701867579,0.08109185234629943,9.956883273216546,-3.6695816440593734e-05,-0.008213887648083265,1.0596686695158505e-05
1.58,-0.09688816249791155,0.10901714609111793,9.789849236525905,0.0070658686193054146,-0.006847609372862541,0.010685429855357993
1.59,-0.09975221926952736,0.17945691927765092,9.836561939053565,0.007581173600034796,0.002255275314809,0.005701598132228286
1.6,-0.041700775304558436,0.19692790696579937,9.824861377838834,0.008834194478771169,-0.0010458867570284497,0.010660068625738808
1.61,-0.147168078887785,0.23519257548995243,9.80592280402483,-0.0018729792406996341,3.9668236131242354e-05,5.06302177333e-05
1.62,-0.025742937213809283,0.039428238617382726,9.773436504291688,-0.004175134339381919,-0.002866029329864219,-0.008667123409961251
1.6300000000000001,-0.21964400145144075,0.15299132067293172,9.871990913737477,0.007391482710437228,-0.0054430206755863774,0.003210079943328377
1.6400000000000001,-0.0931569614198332,8.134701286743873e-06,9.929394470673245,0.009642584556011673,-0.0017166013752788075,0.003579408224090061
1.6500000000000001,-0.07613474490912127,-0.07014315221882073,9.789344104973152,0.001837382755385128,-0.005623519410391005,0.0020357986955627893
1.6600000000000001,0.05107331256487624,0.1449805546732104,9.763419649158758,0.008101701560604128,0.006377720669920782,0.008060768552925262
1.67,-0.08790704906842815,0.04247482851315479,9.864967490088551,0.007197651081600256,0.003853274149035011,0.006609737994457249
1.68,-0.008648759812705756,0.051926750553866245,9.914496790968272,0.006209611597272375,0.009749978699248422,-1.580236544795801e-05
1.69,0.04632899928356275,0.11109337405417881,9.756987450375528,0.0027935268183608467,-0.002231694180965495,0.005547203109303125
1.7,-0.0506560236728377,0.04987859747555483,9.807148132629811,0.015915603269289418,0.008004127982406552,0.005604207313499027
1.71,-0.08937697228376013,0.1058903282300017,9.858173531744345,8.153728830307457e-05,-0.0019240990239331633,-0.004924136858556259
1.72,-0.060413418888231936,0.14857585484026536,9.770432755597387,0.013056635797387844,-0.006769671349776184,-0.003906917364195907
1.73,-0.07432877197305433,0.1810795301031247,9.943797451465189,0.0028834358403415266,0.004748936216619563,0.0032185672182662916
1.74,-0.10602838108141252,0.16851507117864523,9.861264615072857,-0.002712995070435117,0.006734610675916642,0.010307697891020203
1.75,-0.14219612396911496,0.12999628860046622,9.848596733610425,0.00646339656881907,-0.003403238159081717,4.5234883528675034e-05
1.76,-0.09412797569207348,0.19265917208487704,9.852557850413568,0.0032979716496734503,0.0032031616627336713,-0.010843271705621205
1.77,-0.00011456781935757776,-0.03982829684590333,9.78007006767613,-0.00045633696723830063,-0.0071323569418063676,0.009199644103182365
1.78,-0.129363725733644,0.12757617662927306,9.805307187399126,0.007518139543787992,-0.00027845594114695165,-0.003023403068241521
1.79,-0.012177722068395291,0.06086150123139135,9.684529758491593,0.0029832362916354022,0.0068376195744294845,0.007638693790656468
1.8,-0.1197023088623551,0.07292666993617106,9.783320969091417,0.015498382571508342,0.001239885762596293,0.0055337995078578416
1.81,-0.009318165038473769,0.12047476945798798,9.78832385063335,0.004123677915810951,-0.001031408041438205,0.003193465469166526
1.82,-0.03346081416421,0.10603074557273498,9.867653864069023,0.004692582800775438,-0.00028383415302483787,-0.006615462179433906
1.83,-0.01829493329455477,0.13009667373975398,9.888878888933224,-0.009394418534348066,0.009761256956202924,0.002673536929481459
1.84,-0.0028761251488262224,0.019686720922799383,9.858055401639927,-0.00018957260564801855,-0.003803065925543235,0.012937564926087865
1.85,-0.10671457964897595,0.1207744983233033,9.878634303796696,0.007546515785469325,6.427076962938979e-05,0.005188115539117395
1.86,0.10088438796508538,0.09927010752781998,9.825112192380614,0.010311933826713311,0.004836205206640812,0.00929434373234967
1.87,-0.04021894680814242,0.012938026041877881,9.939694161903931,-0.0006825551673617213,0.0008181541095905817,-0.00041632603574116205
1.8800000000000001,-0.09637657275075574,0.13117728011379373,9.834723574786867,0.007149240054663764,0.007369936325497416,0.005618565088220243
1.8900000000000001,-0.1107058113231133,0.18250018496080223,9.904167982630874,-0.001107983686624776,0.0022847854932026156,0.006852577039550269
1.9000000000000001,-0.11490577155773866,0.2159257322780423,9.797001230436383,0.005648311467331721,-0.0015711668350828763,0.0034204077189864336
1.9100000000000001,-0.17872974463245178,-0.008839860635199218,9.936561404436564,0.000775951060565684,-0.005666360328216811,-0.007428659503308267
1.92,-0.1420713597824535,0.0010110918481112119,9.940357522448503,0.010050126728656416,-0.0041537391720222715,0.01459622813054418
1.93,-0.012339499482183963,0.08136486813143674,9.609039151168615,0.016445992589021158,-0.0076644366313307925,-0.004897207111312481
1.94,-0.009001058837373177,0.30302370851631677,9.919728721205031,0.007801018821930333,0.0022536125850169484,0.00759258144273842
1.95,-0.030017997950358866,0.13082999640070153,9.817318260234181,0.004658656216789744,-0.0044935648560759,0.0019178248208847684
1.96,-0.2260940590801702,0.10095770367052173,9.729890148551775,-0.0005562208682136204,0.00017214810475386878,0.01027688774976386
1.97,-0.01711705165068951,-0.016325962698992447,9.729802440600295,0.009655640834684887,-0.0056433382969982935,0.0021893662628644887
1.98,-0.04650271607080412,0.03233475702200658,9.817397975800645,-0.0017283279989264017,-0.0037413161545443627,0.004907076986025676
1.99,-0.21787052451466576,0.1455275319181763,9.807392144744018,0.007694219321853336,0.00038151821471638114,0.010124484401090561
2.0,-0.08033684574049353,0.07642335632702688,9.818742192001643,0.007638185351772392,-0.0004973245282652546,0.0035023353025062103
2.0100000000000002,-0.14643755968269673,0.058228975838522906,9.696745183053736,0.013659460252002903,-0.006964511372718268,-0.0001695748618363315
2.02,-0.14767386350141037,0.18333924754693545,9.78535283369717,0.011140123991901094,-0.00411621651252628,0.0046854759304654795
2.0300000000000002,-0.1569517433139577,0.2838404699276703,9.713936127912,0.0064403101258451705,0.002416554950053499,0.005355034336631183
2.04,-0.10486932806941968,0.10232511585865615,9.812444103164776,0.004145945457579861,0.0040635022102527354,0.014334167351580265
2.05,-0.13456763428515994,0.0036077510802263874,9.801871796196325,0.017769207081356913,-0.004777827976542495,0.011472629655836316
2.06,0.044326157384925985,0.06938512886655078,9.85444817193115,0.013002304564350087,-0.0026586534364847533,0.0022546169304801557
2.07,-0.13634563755852347,0.03297082533072104,9.756982478585282,-0.0012697626089217384,-0.000596154804992657,-0.0005818944777795923
2.08,-0.07102918896050041,-0.009842139812728093,9.835390248613074,0.009007157122368728,-0.010738805581764217,0.005133687344301764
2.09,0.008560918956953656,0.01833534669751885,9.94272076026856,0.0069241373569246655,-0.004298739666164487,0.00297997182235803
2.1,-0.044906627370113916,0.12166313973359273,9.852010579632667,0.0002151608402767291,6.957293054200939e-05,-0.0038143626331389262
2.11,-0.09839068692368773,0.04374513696575996,9.750062827564848,0.010988437770975575,0.004675770839331941,0.006295273049062675
2.12,-0.1767970868671746,0.09121906752966555,9.905948153715306,0.005505956240293425,0.010812321602615964,0.005211524214406068
2.13,-0.07396724240744906,0.09227537268613849,9.81957871704492,0.00402437904992019,0.0027526732049461622,0.008023779181566673
2.14,-0.15212907727977837,0.01097794669386036,9.661994114150753,0.0073159983036975035,-0.006308245026002399,-0.007528872752151907
2.15,-0.05808202379329342,0.31738738012206913,9.808399962995031,0.008957765951697047,-0.0003858047423264791,0.002736424624254212
2.16,-0.01556022856387218,0.09519522929743031,9.83027210573724,0.00636302858951001,-0.004138941054350719,0.008186357405919952
2.17,-0.10300080644392874,0.058426288307146364,9.851796585756285,0.000251384293631406,-0.0006611179493278397,0.0031758035614363454
2.18,-0.0020497033346608823,0.15732939784246425,9.806868712388253,0.008821697604172004,0.006145481372099318,0.0060056831093133894
2.19,-0.08801010602472983,0.014873204473103016,9.723656840209536,0.0031958418504529334,-0.0038566476951638735,0.0022769882702041388
2.2,-0.08422293328162297,0.16266100876404854,9.803221088721768,0.007143530311209942,-0.000490242584036123,-0.006670294636057199
2.21,-0.16381801542373856,0.10922298662903347,9.712080462986377,0.007699680015415497,0.00683761387981868,0.009296021096224558
2.22,-0.10566251555605412,0.24047139784413862,9.820744484366537,0.003003578434788727,-0.0038866768612480446,0.00168501730732949
2.23,-0.11955677898320347,0.13530882946475142,9.821692045774155,0.004693168066144041,0.001361506417996114,0.00914573130442
2.24,-0.012453496275468504,0.0033448237873751896,9.604527470314718,0.009338425045467582,-0.007661096423253928,0.002063787429227023
2.25,-0.181941709138143,-0.021561743493529864,9.852153207690955,0.008451446762794652,-0.0037127710361828554,-0.0097725021674308
2.2600000000000002,-0.13194670952852688,0.15439993871609944,9.69051828696565,0.005561274079899093,-0.0009102819683819958,0.006074242021338772
2.27,-0.078594857824421,0.045667922176529124,9.904551950533618,0.0038405882832736236,-0.0009737666862756631,-0.0014934996374035242
2.2800000000000002,-0.12353764837977868,0.05318592776078816,9.794985558634126,0.0131804984645543,-0.007700258533460835,-0.004899930762930925
2.29,0.02970512922564751,0.10767984231001887,9.755290432652426,0.009810157765005347,-0.00387233689904512,0.01229294132592829
2.3000000000000003,-0.03366750400476993,0.08584729549374845,9.981395912608596,0.0015706964270310484,0.002862713739058844,0.004654352684724584
2.31,0.016325004305619242,0.25025445152155645,9.811366586955119,0.0008207769556436394,0.0014485961464374732,-0.00023570951918736125
2.32,0.07334430707614699,0.1367086018036848,9.779575526283395,0.0054998217551649785,-0.007590394977375877,-0.0017102447639741293
2.33,0.008394416934120616,0.07368532035971717,9.725043363204168,0.007248196662286427,0.005070260780382535,0.006737530662894704
2.34,-0.007866553260001644,0.06614320672019341,9.695046376177622,0.012060072691154472,-0.002475153139603044,0.0018835183202456666
2.35,0.018793840999608277,0.17163402540557351,9.845257235445843,0.015366846648468865,-0.0040828365265085705,0.00777178397793357
2.36,-0.0828116127358484,0.1490706734915655,9.931058668615147,0.007069403262167002,0.0018227461271864468,0.00849000063134853
2.37,-0.116479503981827,0.06089303597765766,9.725191436660332,-0.005313209741561371,0.00940881503648335,-0.0023937165739436545
2.38,-0.10489384926495203,0.10633011119164834,9.83336368274037,0.008585567264500325,0.003426663044274784,0.00020178010472250187
2.39,-0.10047322146843744,0.15152578066832478,9.788870828805194,0.012531876454680235,0.001575689149784014,0.006786379034316149
2.4,-0.03398255944752816,0.2232403423063234,9.823242813028042,-0.0020007843113619686,0.0011157755254852112,-0.0001499907641183346
2.41,-0.12921162400587663,0.17671343993155672,9.907818701123075,0.004577919752127093,0.0006580248034662665,0.01161265285385795
2.42,-0.06757091594437166,0.3383796839588155,9.853991791977593,-0.004344105795617015,0.0028770944309900455,0.005002135336912043
2.43,0.016440516508616693,0.18453908702349162,9.7976695045665,-0.001673677252028805,-0.001938200752076183,-0.001161512689731821
2.44,-0.13308976635969927,0.17820921912258625,9.942333304828406,0.006409237411543769,-0.006875967930382776,0.005308830009372369
2.45,0.009174788589063884,0.08277750207581303,9.79801453077613,0.004497346579413926,-0.004824509690945672,0.006321926873843548
2.46,-0.09613907597698776,0.16555873345822017,9.737731488147766,0.0022246000647496403,0.002708425820208211,0.0012110479612850076
2.47,0.05178673611607311,0.10046005856980461,9.826700597524173,0.009062791910878757,-0.007998769802344092,-0.005734160308787293
2.48,-0.20832967956222814,0.233871305203338,9.764572123912727,0.01717874069719375,-0.003731636612331866,0.0039872913403285306
2.49,0.03718516450228902,0.293784435627553,9.973636017061127,0.010417442379349369,0.0042064592287811235,0.006021801719146189
2.5,-0.023820858182922122,0.08963337515903583,9.74325477502656,0.004346566445405972,-0.0017682285812268973,0.0007876399827017018
2.5100000000000002,-0.03028451669489096,0.21058267340646464,9.815778190995976,0.011738877301067345,-0.006629200381902167,0.0020800773284832285
2.52,-0.14324672237373934,-0.01473585589348858,9.802086139437819,0.0037302382835172456,0.006643047300843833,0.006197008614605105
2.5300000000000002,-0.1677409633030743,0.2833420841685456,9.906378244178399,0.0072371741481423455,-0.002060065762423872,-0.0017596892212572912
2.54,-0.11548729685038045,0.22254095861832857,9.95945740745907,0.012030574063010072,-0.003375333465747222,-0.0025660421976888303
2.5500000000000003,-0.0743442495774653,-0.005608909068368945,9.834538874982098,0.0035639753766002814,-0.003264707177771183,-0.004946951092912632
2.56,-0.04443119291050003,0.09367412126758878,9.715087066466907,-0.010071729665816754,-0.0010755347153923235,0.011882322802219365
2.57,0.047477825698273135,0.1001452094924895,9.76049840478294,0.00662100709032427,-0.005933320104988835,0.004524506226830693
2.58,-0.024039857533105023,0.23528905902075226,9.80065800079172,0.003246282896434519,-0.005334735746023682,-0.0011243917674474838
2.59,-0.1033476181896189,0.16694389846556845,9.88175205551545,0.00023623427079835085,0.006515192958009621,0.0016488366715687718
2.6,-0.0868413765020942,0.07819674233736634,9.614721024508412,0.008659795034239054,0.0027325453657228195,0.0015922429972004052
2.61,-0.07967508116523503,0.1796665910032425,9.683651538297905,0.0015817054574756243,0.003016227899981363,-0.0032781587619834366
2.62,-0.0614517094217219,0.030281440544907196,9.845964568765533,0.004036124100561308,-0.00903417308849586,0.00881137419547568
2.63,-0.14360533584544524,0.07440307194419456,9.824690671273085,0.009944842915972057,-0.006041038734150465,0.0032904472733192133
2.64,-0.05043401602968462,0.19508574440347293,9.822755427440546,0.0023538037323406077,-0.005103293479221566,0.0034071196051825674
2.65,-0.17041144441210426,-0.09365797073846319,9.843559857272957,0.008695866107816213,-0.012783414383797903,-0.002077919569214414
2.66,-0.03500863140853309,0.3050612171247497,9.810293542072744,0.0005233885004552424,-0.0018866413220593192,0.009839431446617404
2.67,-0.13611841729049892,0.07693646640829585,9.770005538997028,-0.0006160660866628047,-0.0003622115142701658,0.011082738705677499
2.68,-0.058494914017413656,0.12109252625766541,9.78527509756379,-0.00367824078244595,0.003436584759610716,0.002564439190497917
2.69,-0.09867928449470843,0.39713711975833477,9.832515213242285,0.0003658569902427909,-0.003114150180097258,0.008690114217535537
2.7,-0.07507855714118146,0.027032708715887088,9.8821482802235,0.0007711535812126458,0.008380731581135848,0.008342368263962511
2.71,-0.1198249036523559,0.2449814096616818,9.814033394770409,0.00836276705678117,0.0014345146708433822,-0.001295431273678942
2.72,-0.1354217644432884,0.22530083731705897,9.781817919614442,0.0020676440571944276,-0.005768151429686972,0.00504855323148967
2.73,0.08116592557512409,0.057903923770596166,9.81053249895318,0.011133939978917904,-0.0013941315949360259,0.005186604657801821
2.74,-0.16872550497747563,0.1779724198787656,9.793618401634559,0.008988401261438494,0.00493762253808819,0.01586673356499467
2.75,-0.03726098869310106,0.17017155920056734,9.82413569175325,0.002280797269835481,0.0006897314544966606,0.0014360599225164677
2.7600000000000002,-0.0700520497455863,0.2499143614765248,9.728056551770702,0.00973286247725342,0.00557951058199306,0.0023168579312822964
2.77,-0.2531742709480983,0.09627820380939052,9.912334534854999,0.0039059339022475986,-0.006005949843646629,0.00037744156270353444
2.7800000000000002,-0.016072894382705608,0.18903874820209776,9.789455422301623,0.002172920419088383,-0.0029716002771637785,-0.0017166371064857426
2.79,0.04601127446997064,0.11990921743467439,9.905937696171254,0.01160035484267613,0.003975377199997019,0.000731391979218322
2.8000000000000003,-0.05081632476881155,0.14415268739079762,9.736263895278478,0.005602267055576832,-0.0069147409010668365,0.008821952326751845
2.81,-0.12017973462752474,0.16257327446743422,9.83121810905048,0.0026726059202002274,0.0019105655251721622,0.0005030810931039502
2.82,-0.013201853852190568,0.039192975310442094,9.818660486635032,0.013648400122776426,-0.0060279185112475,-0.0005170992990853563
2.83,-0.04168796485715223,0.16162741813882714,9.836595575108591,0.006386279433486724,0.0021439901928446206,0.00841413316171363
2.84,-0.04990972425275959,0.12834846368432257,9.862346116305224,0.013426306548793792,-0.0016961379859847215,-0.0020130219163249884
2.85,0.005976943541236152,0.13840545453203573,9.63472171591295,0.008150522908070414,-0.003712959116928851,0.002400931143044515
2.86,-0.05592504639113686,0.16366146126920514,9.865286490888696,0.001722464994344528,0.001525865055054404,0.0015498194424719831
2.87,-0.02327226726492026,0.19803508902218397,9.733690322011407,0.009316254550579153,-0.003722823712225796,0.006881779461868805
2.88,-0.05288742405279244,0.296243248578406,9.79064321917178,0.0021261720303334857,-0.0011434438556531554,0.0013195115966730681
2.89,-0.018168031274940363,0.02026522716867482,9.724220990940562,-0.001479881515650267,0.003701856018815555,0.011382379850617562
2.9,-0.09041196656315745,0.13644451324019832,9.814114851551068,0.009654866848412585,-0.0056897804886551825,0.004015042851007395
2.91,-0.003932536121211208,0.19041661036533927,9.823672309373235,0.008837013325154219,-0.014572505907677563,0.006206441993763648
2.92,-0.13416639078208875,0.0042559177114576685,9.849397097258572,0.010686348521228555,-0.001746913375627969,0.007575288136544418
2.93,0.04725026224270011,0.2562758220558878,9.93969316879954,0.007514931712654801,-0.0006858256891023203,-0.005205081072288196
2.94,-0.10130833278096524,0.08399769468893512,9.98216654909876,0.0029110693087489236,-0.0004502896385890321,0.005555990073025185
2.95,-0.0780261468592134,0.2874348989583863,9.758674316298716,0.004749705535700886,-0.00478198308413413,-0.0038077515018824014
2.96,-0.13034655262002304,0.14923989887540323,9.774137229297374,0.0003006991473003405,-0.00810453063780144,0.0023706137451721273
2.97,-0.20167301242601282,0.21337797680877757,9.815071738190575,-0.003538851641080886,-0.0026222985355747507,-0.0009808771358170475
2.98,-0.055651453641767046,0.26017881929443876,9.658457919949747,0.004310104208147045,-0.0018802236125289385,0.006130351325069968
2.99,-0.06401939144368685,0.09315314447512878,9.78294257129466,-0.0002591212443723528,0.004297172934053397,0.0028739380409625952
3.0,0.07113075023341205,0.14882435350379836,9.751789522674896,-0.003861563300335643,-0.010101860890706874,-0.005159588221188258
3.0100000000000002,-0.059483431609154175,0.1947403649580228,9.681961995189923,0.008168167377121397,-0.0035047641309304094,0.0034887511289081875
3.02,0.04823535092431189,0.2261532664707487,9.786969996481357,-0.0007770515300127624,-0.01185182884118271,-0.0008473030356267192
3.0300000000000002,-0.0975211311161728,0.07579412747028044,9.797947097735566,0.004049069574171388,-0.0022203212908591327,-0.0005078888977987426
3.04,-0.06702642840051315,0.19048471712807152,9.721210945715358,0.010705339518392414,-0.0015922681620893118,0.0028300155586739968
3.0500000000000003,-0.02374941636684312,0.1741463350158408,9.88468902964095,0.005072132930199116,-0.00416479705057735,0.0045369115373838104
3.06,-0.17179211325301078,0.16453200092661485,9.805774937092945,0.002581729453174056,-0.001748576955410629,-0.006686241780979589
3.0700000000000003,-0.12407913454723703,0.1636315938809956,9.821217095710296,-0.0015302930520621244,0.0052193740548729505,-0.0016142781535731167
3.08,-0.0025113704184586833,0.1907349222307526,9.756725658347918,0.012470373433490207,-0.007080621576105927,0.007305942740564064
3.09,9.215472546166004e-05,0.10326371901556838,9.919816336893573,0.0023292902476204757,0.00032776195833494567,0.004005340033701372
3.1,-0.09058529447172822,0.22213054784049213,9.871893491442492,-0.0051774655353610255,0.005402729766503925,-0.005615186912289179
3.11,0.002877256123144739,0.2477534317939228,9.721132371636292,0.00149676218934847,-0.006650756525419308,0.0016161933237024142
3.12,-0.10425470911969065,0.22033957974467733,9.913229689531617,0.010514859897763275,-0.003936331512447881,0.0016381978514971387
3.13,-0.21417222947151116,0.09384542646843642,9.885588435999377,0.011599930221259425,-0.007300490383155138,-0.0002845219939468864
3.14,-0.08149452436700744,0.18107479429526596,9.743627351175633,0.005627864759455116,-0.0035011938370948957,0.0025990134043584173
3.15,-0.035563896154276096,0.15952112503250593,9.773480101040118,0.0029450222542183415,-0.0015770593956757422,0.0008146784805195006
3.16,-0.09985457612167621,0.2872431278949657,9.853259879911956,0.0020011498529806044,0.002346283518948153,0.0009890785055945062
3.17,0.014815141392525225,0.18926530629195504,9.799797516818284,0.005702584803775236,-0.00899610956006102,-0.0029822355733471733
3.18,-0.17443245248896222,0.17147051793173168,9.94697826521254,0.014605918329638434,0.002045290033121694,0.005149233494355706
3.19,-0.22288637739385847,0.11696086551083293,9.745349754854491,0.00033056585404186555,-0.0019889176056992657,0.0002779511505069743
3.2,-0.23702873496497295,0.22054584576661634,9.722548415724416,0.00461639336574196,0.009218985446886707,-0.0019651423892272234
3.21,-0.28099042868451607,0.138169496920542,9.896440044567242,0.013197220600320029,-0.00730240159965839,0.0051086368644799995
3.22,-0.11567462586296215,0.15290932629679327,10.019906170903608,-0.0041240748134323555,0.00011082263206236122,0.00495695047622601
3.23,0.008531068022516797,0.16955775444880844,9.832998189251954,0.0014177968374858032,0.00018454067429797484,0.0008958508382525376
3.24,-0.02848782210427684,0.13248272737397448,9.838517634310577,0.0032149579306511053,0.004465942570906002,0.00234815496520876
3.25,-0.2199375932104836,0.26333626796680454,9.735886489375979,7.764224072249939e-05,-0.00414582608470321,0.009470609225419709
3.2600000000000002,-0.2488300429486801,0.41373196284329894,9.892825102938616,0.0044478401821647015,-0.0014451968155811097,0.004019468159304487
3.27,-0.03616710972725477,0.2146573948917679,9.852784414565166,0.003764690570533189,-0.0021606223644984063,0.0018285942813691329
3.2800000000000002,-0.0933300531605342,0.25406835630387736,9.855816108623092,-0.011400044448345782,0.0021023739308251113,0.0035518885172548032
3.29,-0.07911426702819029,0.13261040258187634,9.898256116659867,0.008024612737354133,-0.005044714204141217,0.004606699793046081
3.3000000000000003,-0.15522997058072555,0.053646082731547584,9.758185264158742,0.007583999764796142,0.0035821072383963367,0.005130080281844659
3.31,-0.01936932417965897,0.20563197986946563,9.756999672597075,0.005416667510372707,0.0028153413180213513,0.006329308705066889
3.3200000000000003,0.017856836793518044,0.22132272666390973,9.836429630110151,0.008592798904550135,-0.001322497106064259,-0.0018583382341591142
3.33,-0.09018052680673273,0.10538542740814048,9.754295100182116,0.002504417961330538,-0.005155171084473024,0.0010043944718370343
3.34,-0.22850297126831742,0.18235887093326297,9.808401404441463,-0.0008734974281231528,0.00209998003921176,0.0072252040791221574
3.35,-0.2054969072217359,0.10459363979686762,9.746769198398415,-0.001502664420989779,0.0029479529435518545,0.0015613581819175736
3.36,-0.09793131796333872,0.0056173902117400976,9.859129664680305,-0.003014564452431441,-0.0009029272034555093,0.003910493305228993
3.37,0.03220485150838334,0.06153401142907189,9.566730901769532,0.004085822898008555,0.007796800352732279,0.008711444415784053
3.38,-0.0597524818400117,0.12722051639682738,9.872857350202924,-0.0017163368213177661,0.0011728719947520351,0.005037151819787452
3.39,0.008414464741267738,0.38763448333926576,9.83967650452317,0.000591366537886663,-0.0013399457931736268,-0.006342505749081006
3.4,-0.13185616552737436,0.13442785245573474,9.766351856605723,0.0038827211380183554,-0.0053273273430793095,0.008101084283362073
3.41,-0.07613903190612818,0.1667336846142433,9.782043069199695,0.003881634066982341,0.0029071141386655354,-0.0018466784989551164
3.42,-0.12868109365666763,0.14348538356216373,9.700600707685055,-0.0010059028862090987,-0.0036026270962172583,0.0068539446191245345
3.43,-0.054902741508505555,0.1835749043409125,9.876337970713225,0.0023882052666988605,0.0007276599512573082,0.0019589006316757937
3.44,-0.054554229538088236,0.12176975166146242,9.613156530561376,0.002388318362613003,0.0058859388004050515,0.007099081674951069
3.45,0.0015733147547977167,0.2675821194024671,9.815350297462466,0.004030914981187587,-0.004319194936518632,0.0008806202795480572
3.46,-0.02627175591314524,0.26530211585842567,9.797097792742408,0.0007779848337488436,-0.0012314252275790298,0.005459982870809002
3.47,-0.19091649492783924,-0.01440493699540768,9.764206369268473,-0.0030900636767750163,-0.0037778915415828855,0.0017079968111972017
3.48,-0.11154234246257931,0.28578359684559773,9.834384738816137,0.004500410264542499,0.0018707236807228662,-0.0032543331496603335
3.49,0.007972414285546806,0.16382017979090807,9.861879465605682,-0.0023767348279119306,-0.009012223296068263,0.006522199560458546
3.5,-0.04491752495505975,0.09801079812984823,9.738663846629517,0.00859421112571964,-0.007193602282835354,0.010639019707222662
3.5100000000000002,-0.14695340402182555,0.22153834478993517,9.78194331047111,0.005967433359663533,-0.00397022209325667,0.0016045789631943651
3.52,-0.07150336980392134,0.09058252841266791,9.867494650225698,0.00036986064568294424,-0.002395756820896971,-0.0025603299022909976
3.5300000000000002,-0.2796364560105329,0.15576430125899696,10.001233869210143,0.006843355603677347,-0.0013521601873407,0.0010898212691631153
3.54,-0.07272505274751426,0.21510350953138077,9.713755562139168,0.00847632187544971,0.0023179513754797544,0.005988047498223308
3.5500000000000003,-0.039316527837200035,0.173189229056241,9.862045457282823,0.005848137000153859,-0.003032251523689501,-0.0004780614874319439
3.56,-0.06611804850533198,0.29582588018504796,9.709083982718036,-0.004464233236660556,-0.00044133236986313655,0.0026371994895495964
3.5700000000000003,-0.0602708870878561,0.19170334846642317,9.790352378251447,0.010307011017204257,-0.009272740900885338,-0.0017669254015147333
3.58,-0.08226997260075677,0.041013262709483855,9.794136235769605,0.011149319496722909,-0.001166868810457123,0.0035218481751427846
3.59,-0.17469384850857772,0.12343917779660427,9.778184927012612,0.0012376422805797048,0.005133841683099504,0.005149568099623719
3.6,-0.16266808382589845,0.19274664090621096,9.848054446606692,0.008511186446458735,0.00662525431883162,-0.002721603745073623
3.61,-0.13849053313096837,0.07269664096237156,9.789471207421828,0.005126431149843991,0.0036561558791859353,0.0019668518259659635
3.62,-0.09907992456276993,0.1857185604634013,9.741377473738664,0.013226505585398951,-0.009321885182297257,0.0032630349243345574
3.63,0.08852647834353886,0.1743953979464347,9.792981913242379,0.0009757323792515438,-0.002188597537193986,0.009196284888092786
3.64,-0.2501805751382008,0.2967980312138001,9.694264614633454,0.001413820322314802,-0.0034359160357973198,0.005267504791299301
3.65,-0.20095088048562937,0.2113675061096657,9.970122128250962,-0.004084690478523402,-0.0003442136119306546,-0.0009924910321232995
3.66,-0.03889897353135285,0.17619430328227234,9.756854598151914,0.005154613787709777,0.007725949888016229,0.0013555678432049243
3.67,-0.015258040459449368,0.07146786086055479,9.731654854302924,0.005061331957042903,0.006121747590081257,0.004080806065299578
3.68,-0.09775175271533963,0.17513865205727525,9.708133380544973,0.005705900931712108,0.0031097952011106666,3.492579535690826e-05
3.69,-0.11017862570030482,0.19672966347140536,9.77322467658982,0.0023366606299629307,0.009193705625720675,0.0010528727567284354
3.7,-0.10111031933853634,0.12391854709187504,9.867693890954214,0.001745178054096287,-0.0045547973584840196,0.008887130929799553
3.71,0.04125756966719807,0.12794891133379108,9.658831636590682,0.007672818543696472,-0.004734105765053993,0.006226334023610565
3.72,-0.2297862503773379,0.24764990496715325,9.711257399679294,0.00627299796490937,-0.001242611374504371,-0.002503910014001348
3.73,-0.10460783554131621,0.23140532969780242,9.816619053602087,0.005525145791469613,0.008565210537968307,-0.005562854080037885
3.74,0.0574653781312531,0.18510447499080182,9.736241138978206,-0.004064607331652548,-0.0022656055883327115,0.006859157318642847
3.75,-0.08198196720093184,0.29790295056220417,9.692046195441595,0.002510372498304284,-0.0075849776706845935,0.004061604882323743
3.7600000000000002,-0.0006931689471663671,0.1436025758176791,9.59979955237728,0.003549391088930812,0.0008576799461355368,0.00425744392865811
3.77,0.027352579191423018,0.0918305928510743,9.862550382214089,0.008500997856248058,-0.010221948631619342,0.003826739987454539
3.7800000000000002,-0.11170993258613474,0.1712428437659519,9.835943668088573,8.610437847985514e-05,-0.004710544526983291,0.002391739713645191
3.79,-0.15822048565522945,0.09114681792813786,9.862475890573513,-0.003237958960284329,0.0019965694478648864,0.004526416968220616
3.8000000000000003,-0.20917032831853175,0.12405422467867727,9.903651281762652,-0.002416075167258218,-0.0036599987850273272,0.004516234002510833
3.81,-0.008299244310171913,0.15838125039258943,9.760318238721307,0.009585320471737262,0.007353540952047067,0.007092675022257843
3.8200000000000003,-0.06400944479465022,0.11408646153630196,9.741680049890498,0.005069737911859098,0.0007480583820207206,0.00919881921030646
3.83,-0.018663016595906814,0.058743044510240386,9.892267983435708,-0.0025494618354650234,-0.003266759885040442,0.003434255044605372
3.84,0.08909053018967039,0.4280230917326121,9.856646613979109,0.001508509962385252,0.0013226584815487898,0.006613945246542844
3.85,-0.0960798417717353,0.32308504138420835,9.826511048983521,0.0048968382418392836,0.001976789845785972,0.004276001655721298
3.86,-0.0031744727092593156,0.13032478855907248,9.763437890843498,-0.003109040496155214,0.0008417176815944216,0.006055138033015565
3.87,-0.033530883306718794,0.31389973150400774,9.807651016615258,0.00571902509752072,-0.006817245297935078,0.0002173303889887511
3.88,-0.01437241122596472,0.24810217971456616,9.784578033461882,0.0020008851364612104,-0.008951057470402576,0.00036004280218903187
3.89,0.0013527820886170966,0.22642246472640387,9.848145362468708,0.0025912929801878426,-0.0013293161229561252,-0.0011640704213851426
3.9,-0.013833757018069805,0.2143143280485545,9.847450352548435,-0.00030422780099243624,-0.01213428503919355,0.007615631915438431
3.91,-0.1079089077871243,0.11184323483774915,9.863563922217518,0.00034938394772887236,0.0039291776267167365,0.005207217842284211
3.92,-0.01477796770588665,0.07181601487535368,9.905037917391365,0.003599179552965854,-0.0032198191586558203,0.0028314368720870472
3.93,-0.21142365658609177,0.21401024280322128,9.72572949207781,-0.004486965620690194,-0.008988153862936606,0.007670229600831946
3.94,-0.11952695653342568,0.3042401490660619,9.765211934870289,-0.006276965757492823,-0.006961899886805299,0.00827812581232747
3.95,-0.08151850960394373,0.1379012292021773,9.820874374308366,0.004752155391609577,0.004204801366170442,0.009333830690529291
3.96,-0.09768864116723991,0.07590104294505497,9.774992592952021,0.0035280415306689515,-0.006203897627006495,-0.0027021663157344115
3.97,-0.04126433747728861,0.17831167689319638,9.810690480484206,-0.001582460633568959,-0.002540012091187092,-0.002545336809393025
3.98,0.0025885614704018595,0.2652411792912113,9.660368632419958,-0.002454181314964373,-0.008873555546662387,-0.0011820631246346946
3.99,-0.07516201790241918,0.0666653407841614,9.73431184256478,-0.002843076875576999,-0.0003574685873704113,0.002406992897071968
4.0,-0.12608537952835805,0.19699671038993743,9.764323212860528,0.0008017516338565138,0.006970564056629326,0.008754778211252777
4.01,-0.17217199576271813,0.2494420707944076,9.872966361924336,-0.003597991706559749,0.0026943054808272904,0.009734321407657636
4.0200000000000005,-0.15786793002360186,0.10987404100410385,9.889464598901741,0.0034840793435225257,0.001354917127346116,0.003739783930822001
4.03,-0.03666724829829401,0.07736563642156616,9.891834168251002,0.007957811453789227,-0.0025522946331481165,0.0018116163500361217
4.04,-0.19026982692410033,0.22483127596811114,9.853810443528284,0.0017821459087412111,0.004213554084309631,0.00035076545876641706
4.05,-0.022470786260580827,0.10232358412440765,9.806158799018046,0.0012045501560826349,-0.00028454003057346846,0.00016565479563129273
4.0600000000000005,-0.07801483103137175,0.2501846857497556,9.773098981555894,-0.005973362506354047,0.007333977845795505,0.008912685018332221
4.07,-0.17073553203369707,0.23948006051386242,9.767799315010151,0.003360141875904432,5.4321841450489985e-05,0.0008254882147905149
4.08,-0.1299129932917852,0.12926101739239962,9.734739146328653,-0.0021332410393719095,-0.0017555424613911687,-0.0015891726837353546
4.09,-0.01250452955056143,0.30368319910507413,9.761627470084301,0.0032060382582310525,0.0010759272684949892,0.004341726163439554
4.1,-0.06084895985218399,0.24431564307286013,9.84660890246827,-0.004196168900276149,0.0029204397175008603,0.006410244091486394
4.11,-0.12784468838606414,0.18813195541444097,9.862692589690102,0.0009286834222574814,0.0039367122782090576,0.013785215071630868
4.12,-0.12951683429156496,0.07480757358779894,9.832329069193827,0.005566156358685594,-0.002585342205965671,0.009224206253461077
4.13,-0.17358230072564163,0.24091717748424513,9.759552054550124,0.010538306832381933,0.008528739047839774,-0.001883341970849401
4.14,-0.11031402670192109,0.25444159521008813,9.777047834393606,0.0016974169868099053,-0.0013097179868758334,-0.007656399040790553
4.15,-0.06731182919013948,0.1306855480281668,9.768565854365626,0.009125671327379976,-0.007722011908086192,0.006000006235096809
4.16,-0.08837693277296121,0.1636704895651023,9.871242853350845,0.003590788626649185,0.0014107752416064744,0.0067669050023987315
4.17,-0.09241939359494566,0.13725822307879365,9.721198508891812,-0.0022535168901946664,0.013300375128370012,0.008141368887283675
4.18,-0.17385523316148654,0.08062470812611038,9.846557313255614,0.004592846266689684,0.0012965199936699175,0.0006351692335334889
4.19,-0.07565992250205292,0.21283421179949732,9.81487697418561,-0.009257009997399725,-0.002599694436774563,-0.0023551187700329547
4.2,-0.05146070352128932,0.4256053960096645,9.837401600455722,0.0002547962408396866,0.003155519223592332,0.004307306068052562
4.21,-0.03172383120895825,0.235511868300399,9.972524114219695,-0.0038490613281986844,0.0009118852087805648,-0.00274609770780594
4.22,-0.020743890812707486,0.11364636246185846,9.774608874147669,0.00031285097802719237,0.0034200266607042787,0.006470009599929893
4.23,-0.1646955439605328,0.1917117906980481,9.751229449552314,-0.004521320626477705,-0.0025469188058136866,0.00032724105281773503
4.24,0.12924617390138238,0.22212794060295438,9.697784085166711,-0.001069778886388054,0.003642311463683286,0.012303774699908584
4.25,-0.19162254157142694,0.037269609271907006,9.957668375254388,0.0036850332119107094,-0.005808834959884999,0.004526600381113529
4.26,-0.2754561683135944,0.18810431732197075,9.834214559855601,0.006341168349637549,-0.00653961216144015,0.0022737731959161286
4.2700000000000005,-0.13848253348065379,0.20843400362607378,9.736358893950609,-0.0003378469272321586,-0.006451965271004132,0.005092889408923157
4.28,0.0043755695381151455,0.16940099209995724,9.811043402056963,-0.005557475744681288,-0.0029740222169291402,0.0015780443471376689
4.29,0.14551122830242857,0.09937891680047221,9.925116333389843,0.006652583852739578,-7.520240221893602e-05,0.010614017556705282
4.3,-0.03423522373715243,0.21963296083329645,9.80373032308562,0.00776892780528535,0.004001221543512895,-0.0013156350782448315
4.3100000000000005,-0.16939462365370314,0.17242402418267755,9.743974740518322,0.001316238832743477,0.004703331108745283,-0.0004819321232102864
4.32,-0.06713164970040837,0.19346484617114346,9.875850175992179,-0.009617821592502573,-0.004520090701062786,0.0028528080255227923
4.33,0.03244986104317141,0.14962968457172027,9.657849398176253,0.004697930892086331,-0.004666125542517837,-0.004160141651001152
4.34,-0.11335450868659891,0.17437700409030554,9.75959198033325,-0.009445722670772204,0.0029932983211346936,0.008154357649177215
4.3500000000000005,-0.01113528660228364,0.09827962933065819,9.791850199303623,0.0015322205132055372,0.0014992255406731866,0.005113464452373717
4.36,-0.12184086517225276,0.1960078742727174,9.844549952690654,0.0088266438515414,0.0020250778840606525,0.005708813829061069
4.37,-0.056250493957077846,0.30243700332114454,9.840746572170486,-0.0027752163269875742,0.005516691978377484,0.005244804005487614
4.38,-0.09824955696539253,0.1513911700408522,9.831689650237863,0.0038288241698304975,-0.0005163942357059759,0.003303577177707472
4.39,0.073341394842759,0.2756226877700008,9.823212542110472,0.006202116208532215,-0.006668167392711746,0.003728404194975475
4.4,0.08224040363918757,0.17260248321187846,9.740149098840318,-0.0017822317303020187,-0.006956399977768004,-0.002193316443571343
4.41,-0.09199341141497072,0.07774600233319078,9.809207428391309,0.005972234441632227,-0.006049697197716073,0.009318625934282738
4.42,-0.021337806211390843,0.27278130820766877,9.755329376223496,0.005716097175560443,-0.006973261880002272,0.006165146156620744
4.43,-0.04830218705979239,0.23473674362211985,9.713906781333646,-0.0030492689405870795,0.001469878071900824,-0.003036139864711865
4.44,-0.024840743616187266,0.08124569207212486,9.875806526528265,-0.004753940153770059,0.001242571482215782,0.00482543554653842
4.45,-0.11748665759880364,0.23731719716144045,9.82878624087483,-0.001302949637118872,-0.006564361344035695,-0.008124177589832957
4.46,-0.03362032648956441,0.0657074886870456,9.81557669670005,5.6589017607893127e-05,0.0018714717202219272,0.00017038268009047217
4.47,-0.0877953249494829,0.2495762875070058,9.834752134731806,0.002937167724532199,0.0008194470577303718,-0.0060056017601596776
4.48,-0.0007433336412838443,0.24015733640594716,9.726611204582243,0.00011853095340880041,-0.0017260705500121978,0.0009914130321383792
4.49,-0.03442431155589881,0.30580065690711195,9.894485586426534,-0.005239629563401094,0.0015781781476827946,0.008300191120710902
4.5,-0.030034863523239134,0.27869950842341856,9.968924308171134,0.006422535071446155,-0.00028826097422029193,0.006872583983711362
4.51,-0.04923471089769328,0.19346135532422934,9.779827988994207,0.009103563083882072,-0.005629573872528341,0.009300586899120692
4.5200000000000005,-0.020682556698556537,0.07973093158342742,9.837351557735422,-0.009231139131485658,0.0015874885239360998,0.006056501976198443
4.53,-0.10790586940373534,0.2016838300672264,9.964270726623065,-0.0012772546725516084,-0.006837204925121364,0.009030247533132743
4.54,0.09664411801852267,0.1922185309581497,9.888853723637204,0.007941332350133968,-0.00525769797957961,-0.0008130229713779764
4.55,0.03826188101937232,0.3268451552177066,9.852965729825817,-0.0031826564326670253,0.008387424531914583,-0.0010497828227800108
4.5600000000000005,-0.08686408449156081,0.21955044719240646,9.932266706272356,0.005468746575621367,0.0005238478976666786,0.003913069605036333
4.57,-0.05641663024701899,0.23693225983431898,9.605567709467897,-0.000301730291704894,-0.00034646286020905814,-0.0041668982968984525
4.58,-0.028836440451038562,0.1760393489023731,9.948369246149735,0.009028835050484695,-0.003884687649353154,0.0008255186600145851
4.59,-0.06550237428087827,0.15637850502272932,9.82353189520727,-0.0026452552319632767,-0.007211318070972803,0.004684788415271011
4.6000000000000005,-0.009068227092399163,0.12827848647530404,9.879557068811541,-0.00202932542057665,-0.0002949911074107733,0.005664467469471003
4.61,-0.061963386069943116,0.22911377093849866,9.766613032434389,0.000128628003106893,-0.0025926846473553326,-0.002178639131423288
4.62,-0.07325986389679806,0.06895405036742981,9.768633905561428,-0.0003310291117735911,-0.0028468507300712545,0.00033826070260382663
4.63,-0.06390238030639402,0.23130611664226472,9.877886404505377,-0.0021731004468081524,-0.007584514983724494,-0.0036729886111198425
4.64,-0.09778055562610266,0.16490263433335117,9.746324218436394,-0.0054224902461327325,-0.0038516678331397885,0.002435842307976275
4.65,-0.011044807047126286,0.1485663027682659,9.77488297509326,-0.00359304086822478,-0.00173080677170611,-0.0027219679152828786
4.66,-0.012639547037279687,0.05039289668157476,9.77915135623473,0.0025283353440533583,-0.0006569797826308278,0.014976799966639767
4.67,-0.030348143942430385,0.1130381781512006,9.800283551520984,-0.007876094517901713,-0.001981686760766813,-0.0026622018524847853
4.68,0.015056935666501396,0.14949791373347165,9.79857841142883,-0.0021903228688500585,0.007113038904028115,-0.00011169816559351647
4.69,0.08858836933900281,0.25869012552647824,9.846484048485761,0.0028134521091452663,0.00038524461867701486,-0.008152419500514752
4.7,-0.08016854135533216,0.261265729289721,9.804005993483427,-0.006073851823107361,-0.001848282303968621,0.009997889259558948
4.71,0.04205202317937905,0.1887861352100738,9.88403280049699,-0.0008981354902029948,-0.01010813031071214,-0.003153559377271693
4.72,0.06749057398674368,0.17191863026385037,9.788445262513326,-0.0005824978481483761,0.007929404113652965,0.009589964680547777
4.73,0.1201209079259162,0.1812043364911962,9.831565094904315,-0.006684234612859051,0.005790892721286047,-0.004387337404669758
4.74,-0.03988021936649831,0.10623188247913816,9.760804977065959,-0.003305057381906309,-0.004635650390569113,-0.0012526721562026288
4.75,-0.10092429287760243,0.26076918305939845,9.719524519667706,0.0019662303443119225,0.004491032908321978,-0.0011316686427795956
4.76,-0.11433659709588326,0.17574513881318435,9.902290812243026,0.0018163217555140147,-0.0042573171657385245,0.0038450591208416054
4.7700000000000005,-0.14492652675065024,0.248778760895577,9.840600665251046,-0.0007110062489621017,-0.00579665158326647,-0.0030163751439737947
4.78,-0.013797609798609486,0.2926695832679037,9.756926778576876,0.00310221440390435,-0.012041328626570404,-0.0015147146132501038
4.79,-0.05890732693399563,0.12165586376488276,9.732990238746893,-0.002546379684331785,-0.00014769486403179845,0.00046306454333221734
4.8,-0.23532050086537404,0.024852169298924087,9.759360917620835,0.00306318083168844,-0.015348641706350164,-0.0011076145745827104
4.8100000000000005,-0.09820099555525408,0.3056510977857211,9.777107802800854,0.0026719153792366932,-0.0009072847796954396,-0.009270478293756677
4.82,0.005516469879442744,0.2118899389349835,9.848570487608905,0.020370374451757,-0.012036582150784417,0.009997146334352818
4.83,-0.07877462564733073,0.21771692210312193,9.80426749835471,-0.0013997872141454384,-0.004467623038805118,0.0030125069777771274
4.84,-0.17699121334532691,0.25484758203658364,9.774612440015716,-0.004946750480501796,-0.0038709575884922024,0.007642000885680521
4.8500000000000005,-0.09828239560727199,0.2235464239714834,9.7494310376967,0.004475400614182154,0.001804216552523182,0.010590581809451403
4.86,-0.06933875348528164,0.2484296511512377,9.815752523218741,0.007147338971236893,-0.0052199068498401,0.005063838442219169
4.87,-0.07070724954682307,0.18986759062971267,9.815246932100862,0.0019113644484517979,-0.0022093068106805165,0.002403643474986299
4.88,0.07128037127389777,0.27390224285894016,9.877438747053969,-0.001645358892760795,-0.006076776317854489,0.006097837531296946
4.89,0.015277282486720806,0.31294178989209803,9.759587608936721,-0.0005332342420968427,-0.009830397454823149,-0.000649772056252135
4.9,0.02508201158467696,0.15786861737023247,9.85914415507093,-0.0003558420119135128,-1.5089835896138796e-05,-0.004434633134757445
4.91,-0.04766382304972365,-0.04404427457393695,9.79295382435159,-0.007573533871331705,0.004392205416101986,0.005182092578151187
4.92,-0.01698363228683225,0.31698369964845136,9.731991974024629,0.009297801671615341,0.003020804624714389,0.00010350309145391282
4.93,0.03669578638885028,0.10685456133887747,9.741943974616927,-0.0024998149338633945,-0.004287421592708624,-0.00400529320628854
4.94,0.04385652206826363,0.17470277314323665,9.83610535004353,-0.0023264803240022587,-0.010747923222307753,0.0026189890997679946
4.95,-0.20680660327322628,0.1899717258340942,9.698439627715132,0.010443794315363224,0.0029095394272137033,0.00178867043844846
4.96,0.047434462350084604,0.1278067367168701,9.851383092595485,0.0014885994443848722,-0.00032953502355918016,0.007612860084592982
4.97,0.005101644398567397,0.21865771393222594,9.67551369213825,-0.0043285559385121035,-0.0022655351128136464,0.0017091375388613426
4.98,-0.14374945975552095,0.38854000111311726,9.929216189465896,0.0034643908675706624,-0.001294154906643208,0.0001724059366621758
4.99,-0.1293218631956742,0.20184859446294456,9.8285248795593,-0.005772884258285928,1.4200365723624798e-05,0.00044832274988170374
5.0,-0.20562800294996264,0.12686187738891336,9.774816278287082,-0.9617031532922622,-0.28140894116091747,-0.6853503587935268
5.01,0.03880530849430992,-0.11938161633841933,9.896614296043197,-0.9549661137684962,-0.2693326206915511,-0.6511332681144204
5.0200000000000005,-0.10328346256018445,-0.10296413882593634,9.763308097218562,0.05006812680549405,-0.004384539469721066,0.03969138840464757
5.03,-0.036791051226604615,0.057347014027474,9.906012023953481,0.04255603607721162,0.002761068734514688,0.059617116988701105
5.04,-0.15082081925995047,-0.013471746697372874,9.825218026859114,0.047111791219726425,0.0038750776591297133,0.05401344434258697
5.05,-0.20100597659341363,-0.03064815081314061,9.846255810189316,0.03994632680963392,0.008324806248473399,0.05606740707463703
5.0600000000000005,-0.03019717965623416,0.04005018256748985,9.732945438898305,0.0438150849179291,0.012686570835459373,0.05460789433618672
5.07,-0.0507243334442909,0.048751214014675456,9.867119652115573,0.03458702462531073,0.01703626216590535,0.05212992090575326
5.08,0.029073661806277837,0.13099384854048104,9.700201644836577,0.04127636154496458,0.011403313401829146,0.0498787726800884
5.09,0.1325106030387983,-0.028928197663341537,9.765474263025622,0.04583059363439496,0.008440203662810933,0.05180366362255437
5.1000000000000005,0.017638085118500443,0.017383404809216074,9.802427253292384,0.042145316829477,0.008483189722968097,0.05537274201174868
5.11,0.13100758438894097,0.04988213683867718,9.827897191510358,0.0482371677668265,0.011313140524495124,0.06225824064521043
5.12,0.0050153569237361625,0.18335533904973536,9.751208870609478,0.05384368864829858,0.023139450185373035,0.056489942635502124
5.13,0.005612160304283962,0.03732019942577042,9.905866996373199,0.045433252706745385,0.011031798090535203,0.048116069106576606
5.14,-0.030071230037414222,0.08639693957529185,9.805267753527325,0.0508026318116159,0.012714671592114864,0.05439538564737712
5.15,-0.16289056386302303,0.12676727602337867,9.802205822963284,0.04678040338889831,0.0197533270593625,0.06004840157604863
5.16,0.06348225475926955,0.11706575640979186,9.799366042287605,0.04755446783264384,0.02214033286530479,0.0579006737098636
5.17,0.10954447285648326,0.16042153376646123,9.751321229591339,0.04643334920388752,0.020810600981008082,0.05645485423126038
5.18,0.010921258189689299,-0.07042367591641889,9.716705709696656,0.04317990387424323,0.027372948381718765,0.0475137153206431
5.19,0.003123586698233389,0.10366683593804384,9.794062736155928,0.040784232394238354,0.03572111287516403,0.061804524323941804
5.2,-0.06970194945450722,0.03896119148793202,9.848853456415219,0.04273889166995733,0.03138027937277381,0.05719033617152471
5.21,-0.1869423975370766,0.19778251783775147,9.815320448982927,0.04243568006852515,0.03323010705976001,0.053266993269807744
5.22,-0.1760213904725564,0.21629527379246616,9.812757662226383,0.04667052369999752,0.040032329790632,0.04831000632837994
5.23,-0.003133337744101114,0.07966881593547367,9.87713516535176,0.033780004793415405,0.03637666954262954,0.05036088518916232
5.24,-0.010070213584283734,0.1430614364673603,9.752721449823936,0.04081416464231234,0.0379155976708618,0.04884914668305298
5.25,0.01891300410771793,0.08029694084125558,9.576706440621946,0.04245808067073906,0.034872178625848696,0.045131549441184526
5.26,-0.15138846855891858,0.12295953328182746,9.915486525176188,0.045853537010889414,0.03862751015397959,0.05552122346659375
5.2700000000000005,-0.0932243312387592,0.06300979369756164,9.716771608534136,0.035482162839400325,0.04130466049766285,0.05398394919044494
5.28,-0.06848380745981887,0.08966897114067215,9.733381713926674,0.04723450052626736,0.03826196037905969,0.05702400792084672
5.29,-0.14534203358549813,0.06711744801952185,9.69161457848955,0.04163649398278826,0.051316578696450246,0.055670404926481155
5.3,0.008544478970158989,0.17344695644332864,9.720574818121838,0.042438068263618844,0.04413043914694484,0.059691746898400844
5.3100000000000005,-0.17019076492793084,0.20753190205057626,9.880210531039948,0.05318690171688649,0.04757340869037198,0.05654530514909525
5.32,0.10321242294775103,0.09098243906978096,9.685871408801843,0.03458381572553811,0.054774763664483896,0.04351098175891313
5.33,-0.11413086538114309,0.1797335701023625,9.82338344580999,0.0460544365475628,0.053910936229317495,0.059262319262997236
5.34,-0.1657097306697623,0.09494060452164461,9.746645558705538,0.04801980111573089,0.05888865146914603,0.055063595691818415
5.3500000000000005,-0.00017735990156456105,0.05920550771305472,9.941719055240842,0.05142495091871596,0.05965079484641408,0.06165416666993982
5.36,-0.2328723855531672,0.11583825078905025,9.749393318527286,0.047354358604721127,0.05230682888780575,0.056468577744290524
5.37,0.003661559018013405,0.21775232292504368,9.830787553218963,0.03874409044965661,0.054906913537708144,0.058863356022931065
5.38,-0.04942522540989531,0.16335308430834872,9.774517733572166,0.03348920659197642,0.05536929680715248,0.062104748922999685
5.39,-0.22015429259323266,0.18596805277879352,9.888401927351563,0.037276717771038595,0.06322822327866526,0.057167858600386895
5.4,-0.12281536514658067,0.40461329909806754,9.674166997131149,0.048776358051398606,0.06302046244629293,0.056266747567835985
5.41,-0.0947608368645839,0.12081621231651551,9.82581551675908,0.03412289443286397,0.06847916387230982,0.0538250465582227
5.42,-0.08537519552116181,0.2684419924118857,9.836738315762275,0.044080840005455715,0.06263466174506253,0.04869850257481271
5.43,-0.04808420557311946,0.30301924051731105,9.788104582397231,0.043496705792083395,0.06409259728265809,0.05804699076853185
5.44,-0.0964968223179084,0.34772564587207666,9.736703728824885,0.041301262719039986,0.07134712005075401,0.05533750569624719
5.45,-0.17384285619961898,0.12690306518705052,9.87728950080473,0.04671990334254825,0.06718126368205397,0.05880237820451722
5.46,-0.06998476290094623,0.21179112900555955,9.81294290714097,0.0458057570790518,0.06902535199647614,0.052093685999461514
5.47,-0.3429543449818426,0.2754669691758509,9.681444340111021,0.05047212972996506,0.07325295644250213,0.05080181987686226
5.48,-0.22829700924357255,0.18660606301645177,9.919625242883134,0.030433873705042244,0.08285649683103163,0.05346516379563774
5.49,-0.2821061400610293,0.1279182789368748,9.940023003558007,0.038061596460407764,0.07227142081877184,0.057374779846322506
5.5,-0.16607760461297097,0.14319865812029448,9.822999939061791,0.03757491229586557,0.08510714141519388,0.056906495641482625
5.51,-0.15836991546603987,0.25145025314818154,9.946312582691082,0.042614986767571764,0.07525684956351561,0.053756720877034446
5.5200000000000005,-0.04196620566864634,0.14561639603874088,9.776236967279086,0.04461000295340731,0.08245817360493639,0.04650582467211059
5.53,-0.12717170867186633,0.41667521619455505,9.820569471474379,0.03791699088727273,0.07654263199182985,0.052613498536121295
5.54,-0.1368311504181335,0.27335508858973756,9.804399763632322,0.039398879387872926,0.08038457958554433,0.05540194021931064
5.55,-0.1604110621528659,0.11594779501228908,9.93148008896506,0.04512184866891422,0.09439952777082994,0.044420402888505545
5.5600000000000005,-0.3513004478104912,0.23194783135919156,9.844204035839475,0.051137905144282535,0.09248626691579039,0.04981879063671477
5.57,-0.33281585745283326,0.3465191990657542,9.726480191224333,0.05020140982895493,0.08908639529112708,0.05888456445837737
5.58,-0.2052135135864672,0.2414077592303302,9.761766907167901,0.040255855338521246,0.09420044401376082,0.05121519975061169
5.59,-0.3160043205187755,0.24335948715160877,9.809253028377004,0.03121641772427116,0.09589830643329958,0.04582688491185347
5.6000000000000005,-0.36988688705896644,0.1258592979785905,9.659089576185933,0.0349809141807434,0.09160899719367349,0.06038617564945956
5.61,-0.32896084841779494,0.27929783121818735,9.834259055451893,0.04230991545581116,0.0963115191824936,0.0445361198762679
5.62,-0.18023553543444526,0.41387854868328083,9.667212467726781,0.0364292630984163,0.09684228527456101,0.04558093298047616
5.63,-0.2654006341699464,0.21525993856984071,9.974618903508816,0.0473953486951525,0.10084474129824961,0.055427915859614436
5.64,-0.22712264261237408,0.23261860124563877,9.735690509574235,0.04172490836563415,0.10562848729572875,0.05087598332695744
5.65,-0.4516196329293136,0.21771480239192517,9.79462732172824,0.040845844599018674,0.11271932221570029,0.04313677756698675
5.66,-0.29502622911387144,0.4052697196766682,9.981801751475176,0.039090561974243175,0.10684790019550058,0.05279989919321954
5.67,-0.32999627288693784,0.28242640615083714,9.834487346467675,0.02833809676171418,0.10933304678649303,0.050464716341397396
5.68,-0.373742003346157,0.4582696691889876,9.745120617224282,0.03886913176802,0.11741018497006539,0.04555460418321864
5.69,-0.41040995591374846,0.28693853213224657,9.865862152652605,0.04180712007447295,0.10251675153190264,0.04693351150178507
5.7,-0.42559309114746885,0.2966958364525833,9.832140520561934,0.0427411483824202,0.10162498801248765,0.054791867923888044
5.71,-0.36755026940098456,0.4178019991628061,9.833059647347413,0.04603716771099425,0.11436061863644875,0.05607947090360112
5.72,-0.35687355576987084,0.30336497101262977,9.978749967284804,0.04485459819123833,0.11641710439207845,0.04284137512926571
5.73,-0.5127625819336021,0.33876690285697436,9.80800847950889,0.03721609090554181,0.1157713990901197,0.05703896845525125
5.74,-0.36525641981152845,0.22821305257122154,9.786837382193964,0.03613759919614713,0.11464367065448917,0.04689907924023244
5.75,-0.47043692769299683,0.22321944471435012,9.78491624902588,0.037233563301684404,0.1034481610701133,0.05910173430670582
5.76,-0.3566061244920994,0.29765510542093476,9.79598342790919,0.034050947017780796,0.12808477118960637,0.05819143292407923
5.7700000000000005,-0.44280009673693005,0.4137627266988978,9.807828381411719,0.03309666164918132,0.11905527864952878,0.049231149063456374
5.78,-0.5034725186658575,0.31850122172441325,9.785798768974098,0.0392454247724492,0.122881381530126,0.043133414128875655
5.79,-0.5363880284139791,0.2373319218369257,9.870618530863252,0.02898957487846255,0.12989115780349814,0.055231533144069644
5.8,-0.5152638645893163,0.135944718282684,9.762747748660606,0.03906335066369025,0.12057072402010012,0.045585463440140514
5.8100000000000005,-0.38088084088872354,0.4014785953844545,9.716923014306815,0.03126121278027766,0.12548649824749375,0.04695446948231004
5.82,-0.47595162666666835,0.30953940840347055,9.831019387298962,0.04878839705144844,0.13269428906856312,0.04763994376960097
5.83,-0.5427944730113615,0.3279026738492245,9.883737180147394,0.03583796476812079,0.1303353948125402,0.04799345001385094
5.84,-0.5809235117827836,0.25070238554962104,9.814285036773937,0.038529910138050134,0.13410024796580491,0.0449249808298329
5.8500000000000005,-0.4558965747839283,0.2944120259644646,9.924545622724818,0.029955644298935206,0.13525989624669071,0.049824111754627975
5.86,-0.6301311970631738,0.402550804724485,9.889052837432562,0.027467134421516395,0.13708397520079146,0.03483304088017494
5.87,-0.6568067041020662,0.5029688893505871,9.739230806974183,0.03253774162352527,0.1350619417382791,0.05748983058419574
5.88,-0.739297202997571,0.2925578732019791,9.90462246918922,0.04755008325453796,0.13701299657540866,0.0408044132501199
5.89,-0.4384461369222422,0.5082358044507205,9.838170250287689,0.03405251342354252,0.13876064058133172,0.046045734944967415
5.9,-0.5931380674779148,0.5007688008429263,9.853205851539611,0.032579128299924716,0.14736098564902791,0.04825954219000329
5.91,-0.5782746896067495,0.506010616832424,9.69289494965155,0.03763690060720498,0.13929099759936353,0.03869942496329425
5.92,-0.6192778240535651,0.5936007872558617,9.633554355719674,0.037503188043427546,0.146617772221721,0.04699745514091779
5.93,-0.6699800790860351,0.2927179841741291,9.798292480462461,0.03372788314494497,0.13392922590450057,0.052196875775572436
5.94,-0.5983143767746095,0.40475717815857165,9.796873673607333,0.04272896097815075,0.14746126882059915,0.05058436861403972
5.95,-0.7129790670934094,0.5095418432760758,9.803057333609997,0.03817186115840588,0.1414469300283969,0.04733794910821053
5.96,-0.7700716156828415,0.35746906766941167,9.710979245454595,0.03171322670409577,0.1598756559268918,0.052397284247962375
5.97,-0.5643596724398643,0.31463818248091613,9.780691878959074,0.03041823938227501,0.14722475622064196,0.04098591057579801
5.98,-0.6334349529910864,0.38469892316457455,9.859211088022919,0.039746341214248956,0.163669694141717,0.03801382580721669
5.99,-0.646613992284827,0.5120293532227984,9.694585888074773,0.04159995277937467,0.1552773029506054,0.04410671942279647
6.0,-0.8281564669262408,0.3666912434004447,9.935122316641358,0.03640484662195412,0.15894908385299816,0.041121217550589104
6.01,-0.8396564551255534,0.5146736861113724,9.66181751103216,0.034161114311194944,0.15664717461860922,0.045462758780805794
6.0200000000000005,-0.8067594999855973,0.4636642270751281,9.823822834031562,0.039744732855892514,0.1529833403756451,0.043313876882909816
6.03,-0.7121516585186276,0.507442858857731,9.657140287748517,0.0376619251902569,0.14945324337352398,0.044796666556229534
6.04,-0.6713484100381061,0.3639006557315045,9.698761169893846,0.039556281032565865,0.15305903087806572,0.041224147498505434
6.05,-0.7910275938404965,0.3928385977719704,9.745130074950158,0.039287300349424806,0.16430606670390668,0.0455465440881261
6.0600000000000005,-0.8815814009668231,0.4770240029857305,9.752571798764457,0.037684280184340786,0.16113557343741694,0.04312274354998334
6.07,-0.9494921816521085,0.44844426061477854,9.696014547138285,0.029652548377165546,0.1663320065509389,0.04492103854427541
6.08,-0.8236443852161172,0.4205685380333614,9.79192389271154,0.03780295269738388,0.16867757768016192,0.0395494455647066
6.09,-0.8904382923681262,0.4879913303555212,9.758199215587146,0.024441424090797068,0.16866767586203935,0.054559374774019745
6.1000000000000005,-0.947437530304811,0.40440312046031346,9.785797696729855,0.03625922200923905,0.17523690471639353,0.037025023965392326
6.11,-0.8765044817975874,0.5136597423220495,9.742821936216039,0.03621296490236954,0.17582497034829062,0.04749223473843574
6.12,-1.0429700146027967,0.5358026773011645,9.747240761751804,0.034704782758986974,0.17244454579247986,0.04219439233966716
6.13,-0.8728380456611109,0.4672438339362607,9.661032062187319,0.032192341428636376,0.17436930719232946,0.04890529549956905
6.140000000000001,-0.93670540292387,0.40963674716995846,9.947547924340542,0.035302148133691126,0.18124642605594912,0.041812937121045536
6.15,-0.959194269857265,0.548562245263989,9.844281725110708,0.03908210441797387,0.1806204333106536,0.040807045397718386
6.16,-1.064643961419715,0.5117253035114692,9.819525609634685,0.032497369216311106,0.1829715925568724,0.04945522330721233
6.17,-1.1093819891682668,0.4218615715459778,9.731649730827119,0.034963472545288476,0.1764054619260207,0.04876151303869989
6.18,-1.0194532998033339,0.49565594866364104,9.62596585652468,0.026659501462660953,0.18181215882485244,0.031144589963352766
6.19,-0.9897998055898894,0.4835191097986905,9.998198803051709,0.04459007625867703,0.180874905670548,0.04108166883243234
6.2,-1.0087257589583911,0.6360825774748864,9.60557500289391,0.023929283586460133,0.1800432099398014,0.04433155379826764
6.21,-1.0663127166158983,0.5890537978136814,9.638460050906133,0.021089867341523585,0.18881085413566037,0.03708013189529639
6.22,-1.2853603032594896,0.518706297261614,9.79566034433828,0.03186849502488972,0.18359507848522516,0.04022629394030194
6.23,-1.1714744106516193,0.4028721897080378,9.672753526474942,0.0348921510376991,0.1888523603620187,0.04166414962620685
6.24,-1.2395135222755496,0.4997959526003225,9.553435066524177,0.03298389103040463,0.19574398542447405,0.03325269834545046
6.25,-1.2249765377665012,0.5442303209882857,9.82544991011364,0.029654934833108042,0.1864902285632198,0.03057702394437973
6.26,-1.1881542617787284,0.6848386010935088,9.74498268455529,0.03158801592219059,0.19290970137797284,0.04016324192439912
6.2700000000000005,-1.2799232344514608,0.5908906557434285,9.738375054835274,0.031589641435901185,0.18776626788398557,0.04653209499132934
6.28,-1.1802838925084431,0.4843351843725878,9.79792820036031,0.02881470561162785,0.19007285972225027,0.03601069376189661
6.29,-1.3938483436537998,0.5698175132992951,9.568705989706999,0.024960154417776034,0.18494065975455748,0.03917232513052183
6.3,-1.2830154224779369,0.5094682178426434,9.629153354956879,0.025039856653823814,0.19897208776268946,0.03664219807291426
6.3100000000000005,-1.2646316785947345,0.46827817000996086,9.72435253574357,0.03721491452267347,0.20090859479817894,0.03712400240003699
6.32,-1.2884380654441867,0.523323195914463,9.707751163564346,0.028866824108791298,0.1984794785986354,0.04003649143607964
6.33,-1.407678839801056,0.46476848025001516,9.593235194005901,0.022288744106931782,0.194533964352352,0.039562139667604405
6.34,-1.4189512639721011,0.590574187808628,9.704237494201978,0.020241673214320778,0.2052102862456351,0.04260648203690632
6.3500000000000005,-1.446476784085564,0.5865303018731537,9.630025606288445,0.03036552443227516,0.19692372719848938,0.029373487428910876
6.36,-1.4171534656206595,0.5464301494284557,9.66375876348896,0.02374889091896772,0.20255328840150577,0.039470903604503726
6.37,-1.409800084894345,0.5743254082335768,9.63893352637527,0.0353184066756233,0.1999742083520964,0.040346530869583105
6.38,-1.3314575516153113,0.601578042534802,9.673251663815565,0.02660801688289742,0.21233350483203306,0.0305770538828413
6.390000000000001,-1.5235380279883062,0.5346638862628815,9.785317344154771,0.030936946380056705,0.20360650302316524,0.03592249894407789
6.4,-1.5151116394707165,0.5130313776469219,9.761407557242045,0.02196692920894646,0.21777994861109812,0.04139621503923951
6.41,-1.3988524030264038,0.5361080365129388,9.667831716540325,0.021446362566723238,0.20839766577606678,0.03950330048182451
6.42,-1.4027090777938056,0.48788189702620954,9.647255637935398,0.027641052061974824,0.20532256003037677,0.03977067309180397
6.43,-1.5847027561568359,0.564116836886689,9.636947183928603,0.02423524156275812,0.2135423779884423,0.035513731123143155
6.44,-1.5770375654870505,0.5247469686084305,9.69520933465168,0.036233375484400504,0.21554867859815188,0.04134918428953598
6.45,-1.6791274642860687,0.5989026904233067,9.578338653869308,0.020362998447912284,0.2124195416635469,0.04210387678724124
6.46,-1.5126439551875028,0.6089619061856909,9.539928688755612,0.026547542488264034,0.21888754597290191,0.03679683156201862
6.47,-1.7569983150356303,0.5215175623815191,9.653770307200563,0.029990721543147338,0.2076565193302653,0.03488229499406709
6.48,-1.6190139832100392,0.6639149520680855,9.710611435631222,0.03000145335669803,0.21589100811650222,0.025925673622961297
6.49,-1.682977959335915,0.6792609148970571,9.762879322952603,0.03041969053476182,0.2232863812207111,0.0371356678501902
6.5,-1.717211232027577,0.5918911264744653,9.781081811966857,0.02193153177552608,0.23045792640404217,0.03339814094194618
6.51,-1.5879866326905538,0.4928973674247749,9.6905143589897,0.022736886503373993,0.21654741547608727,0.03587080184371165
6.5200000000000005,-1.634673733198007,0.5409747403618707,9.519738330108932,0.025736977463528533,0.22442163228302758,0.03728862856282308
6.53,-1.6609843153474837,0.6069250290930323,9.784048595185677,0.027091898008191256,0.224357047369469,0.02625715242417708
6.54,-1.7795944955688134,0.587856008801793,9.708311904562416,0.028056734527303326,0.22141799383217273,0.034943291132441795
6.55,-1.7265978534644908,0.7400785585274009,9.69829682663872,0.02932122119166074,0.22883619272130348,0.03578969163840273
6.5600000000000005,-1.7022066350782068,0.5142631396449697,9.595079479734938,0.021425905398733004,0.23164769072814756,0.03976444863376486
6.57,-1.8718790170211526,0.43269029189985175,9.585723543131149,0.029626979098397472,0.23365145153843322,0.03551858023385227
6.58,-1.868581246588751,0.5246013523638545,9.655519118524907,0.020658173167368073,0.2430903526208114,0.03599361279089808
6.59,-1.9148003048421094,0.5810018535511602,9.602381533963417,0.023401165325502474,0.23895577045524433,0.03383571334503095
6.6000000000000005,-1.9491508702805818,0.7841163144662204,9.609209698143916,0.02821109747255289,0.23152734312467274,0.034480905910363846
6.61,-1.8881079312790985,0.4846568590726532,9.761860802313755,0.03058748753782489,0.23377449050861682,0.026914825465200118
6.62,-1.9076719803414746,0.6456915500536353,9.624391210824312,0.02485867092607222,0.23947875680489034,0.03942271182982416
6.63,-1.9126118760471453,0.5576892472977701,9.700166104794059,0.03186953867678589,0.25388998975631927,0.02632789680691115
6.640000000000001,-1.961315097287649,0.4779785982938461,9.630560213247671,0.02069032015844962,0.24892413497143268,0.02783066199928797
6.65,-2.1386673829411533,0.6097088898641116,9.423339629943577,0.02695085930256938,0.23015371271699417,0.0316035926842153
6.66,-2.1926455696347404,0.6246281798170595,9.707841787941668,0.024761837215020534,0.2373288803791477,0.03106206518681819
6.67,-2.0479672019940405,0.6908828009262971,9.461937611436563,0.02568387599869707,0.22928658579219455,0.02782465957344541
6.68,-2.111557665528166,0.7065370762736887,9.567932705330872,0.015454883212228734,0.23904072566280735,0.031722715917702156
6.69,-2.1020068597272665,0.6123175803532517,9.522412054832772,0.025724425175621783,0.24252930438911285,0.030043339049601686
6.7,-1.9453699907836206,0.5475073336238445,9.407407779614973,0.025921658992800845,0.2428715334729721,0.028646344983314184
6.71,-2.2048378222108815,0.6433500601615265,9.678033963979289,0.02577372816385823,0.2517177304944598,0.022909404788091878
6.72,-2.257914165317242,0.43971743219587706,9.479914802909363,0.026305237717176515,0.2511280694851667,0.028635263482684227
6.73,-2.1911778096149583,0.6144198974771107,9.555478332108523,0.02510902083575618,0.2415954640643696,0.030992652496905502
6.74,-2.138465483827907,0.6389869322581475,9.589503388091275,0.035110092114433965,0.2502795596849944,0.031211840393864352
6.75,-2.2958650870134676,0.6893362980860409,9.564535519580478,0.021767515944931398,0.2468239648058836,0.03002732425935315
6.76,-2.1436980406500137,0.7133451883055272,9.598855319109024,0.019364033774497972,0.25678788013754955,0.030141396422864182
6.7700000000000005,-2.3606919007727227,0.705530839644642,9.436658643347158,0.017139797826058803,0.2550957055934174,0.029980164445286332
6.78,-2.4037942743411813,0.7669394013671249,9.555767766364815,0.016534989991847743,0.24756655069480143,0.027517662544006713
6.79,-2.368458288202091,0.6942195437756867,9.474885054526927,0.009775119460029309,0.2544128541567446,0.026461701305392948
6.8,-2.3063066677155977,0.6318363273537108,9.632069103942497,0.010007322491358816,0.26400522223202333,0.02661519508229803
6.8100000000000005,-2.3125383228987024,0.6965764808159575,9.582693322025035,0.017381198083225857,0.2530457385332635,0.034585698745936776
6.82,-2.4147770858036512,0.710393008160202,9.58397517831789,0.013910086861087096,0.2626003895085631,0.02427949788684546
6.83,-2.4407528109230077,0.7009023645380342,9.358755213450483,0.014926916880357324,0.26745701083871837,0.03140514169500377
6.84,-2.4597573067047604,0.7169972320533459,9.44872268801677,0.025354653285656614,0.2607731905157737,0.027878042802048437
6.8500000000000005,-2.387715993969989,0.6377603785975041,9.59036493983011,0.010669470218783762,0.27099104556409515,0.02459954634614405
6.86,-2.5235510889089334,0.5511273033486169,9.422587940211853,0.012872203609230994,0.26086703809267675,0.025519919570870006
6.87,-2.4523322882324017,0.7212895269612689,9.476804767711954,0.012342527866252475,0.26055846674933675,0.03494312075373082
6.88,-2.612674893823775,0.8395060283035001,9.425873676092452,0.017579894075575468,0.27136554203113544,0.032051463125104325
6.890000000000001,-2.5877088900040772,0.6782528468275756,9.433881108963428,0.01900602417253222,0.2715162046687098,0.025455152761718298
6.9,-2.554399045659434,0.842658653428136,9.461803344729075,0.01862174703800289,0.26050557253122614,0.012021865381467474
6.91,-2.597986049941004,0.706256028851275,9.382966876818353,0.018027855656858164,0.2688329984269077,0.030555453157236283
6.92,-2.6473925909502203,0.6563145547742992,9.496120219664668,0.015470758374220862,0.27279702060738537,0.022270070585042132
6.93,-2.731571250280719,0.7250025338622352,9.41059659145523,0.01870125687932112,0.2698448380750717,0.015215446957706458
6.94,-2.739588024286386,0.7839492692520087,9.378348982352327,0.014815423110267841,0.27713806852764955,0.02057706426518928
6.95,-2.853847843295925,0.7097419292718842,9.355878754902113,0.010960849057633303,0.2723417824777613,0.026333719182795912
6.96,-2.7566996787853197,0.7492732951358416,9.532063171853423,0.013821960661013722,0.2756172565226749,0.021068973993966646
6.97,-2.849272987762568,0.6800182051685182,9.340971491816443,0.01707755373184035,0.28697206107066353,0.019773276135248832
6.98,-2.8405755265562465,0.7238304573639193,9.40312090248869,0.01634130574374616,0.2826426405849599,0.01095960149495578
6.99,-3.023953921490019,0.691252854832663,9.451328486074464,0.006938257348804926,0.2621737707128218,0.025685156840628796
7.0,-2.8393327786993026,0.6457224329723225,9.276690907990124,0.009660305348861009,0.2787486518735621,0.019435024267821992
7.01,-2.845196914829493,0.506558014882209,9.278877134608276,0.00862087294945443,0.2778925677423697,0.01961335905537961
7.0200000000000005,-2.846861091813716,0.5881431540183168,9.342856892097691,0.016784547807479226,0.2894300381663188,0.01963143506944576
7.03,-2.910767407937395,0.5945157868417158,9.139553935229117,0.01795807641521174,0.28108574452811536,0.027669178881928266
7.04,-3.072699802908632,0.7823243250707836,9.472008774306508,0.01557369912000538,0.2834573949976259,0.02155544336313785
7.05,-3.1146685696266974,0.8510578254153436,9.265127205343667,0.015738193400296346,0.2752144353023154,0.015351122801207878
7.0600000000000005,-2.900427575658176,0.7166800022455514,9.421649379784311,0.012564881173492587,0.27476939679494344,0.025444241579165666
7.07,-3.088727523569626,0.8021837099379339,9.298694299463573,0.004980363811633266,0.28574377947261526,0.03170023972552548
7.08,-3.028462866050547,0.7434836967384328,9.373893067074812,0.013488892723040866,0.28690751978285534,0.014995970282549825
7.09,-3.075622672620809,0.8326890644080085,9.21206638333646,0.019297311751165256,0.28633296647071793,0.015749986156056155
7.1000000000000005,-3.041010776568631,0.7286503591670914,9.330695428050365,0.010455020380157143,0.287418100918585,0.022391151525072962
7.11,-3.1241015063831705,0.5936633676443227,9.171114271670968,0.016299554863310122,0.2879763530689357,0.017039003805068297
7.12,-3.2826712203331665,0.6686105953755953,9.089845603278023,0.010884515103413478,0.2865587042047823,0.01455883754047687
7.13,-3.206106296260689,0.7857621968471101,9.409716786160153,0.00356964957919614,0.2962556876573351,0.023991222200713
7.140000000000001,-3.289713050291928,0.7745297992811876,9.196217032334603,0.01179540364828829,0.29890634473934,0.021887517572538866
7.15,-3.2134832423296213,0.7254437636146084,9.104564739870964,0.00956227172113166,0.29828963737380504,0.010957267669641285
7.16,-3.3654213969345457,0.771538604319419,9.134872874138988,0.006379417395612783,0.29102849324918545,0.011498502945688858
7.17,-3.3858413625683723,0.8192510666906045,9.099305630861101,0.0020898775180281555,0.29088021652352564,0.021719726930108433
7.18,-3.3506167326709835,0.7273208502266523,9.197587422635719,0.0010876981597853878,0.29738167387101133,0.019710374452260867
7.19,-3.3946120144373357,0.8464425409408269,9.093875668164332,0.015192582869672448,0.29655235038004213,0.015843590663259223
7.2,-3.3905135166231095,0.758839269572721,9.271627346676992,0.0039062621608195215,0.29283293806580535,0.022440940865379143
7.21,-3.4636736121852665,0.8408854838721871,9.299781270804296,0.007017131740717976,0.30091189749343444,0.011223970322341879
7.22,-3.3828092049452483,0.7861895498975899,9.191383053905245,0.0055345366384135,0.2900531035408929,0.019241643985815998
7.23,-3.6354659859290517,0.746210683750456,9.218439672483584,0.009458028705932972,0.3089475356694179,0.02158384206417968
7.24,-3.5499592331243903,0.7751170785434178,9.128851749296572,0.0003236639960808498,0.29534498080786914,0.01338737922791355
7.25,-3.687845340126367,0.7780348595604457,9.102102715773427,-0.0003940373021661288,0.3029030279693965,0.019503423904475275
7.26,-3.534130931387441,0.7495832888492665,9.158621301142858,0.011107306843452156,0.3032477893825375,0.011533878455357758
7.2700000000000005,-3.557556209051406,0.8723904423414599,9.052743117425218,0.017931574850018298,0.29990522886410087,0.015551871577141791
7.28,-3.660917224661908,0.7958266929734559,8.950152914331692,0.004447254372511167,0.29788917825343925,0.0157994565129013
7.29,-3.555039151547809,0.8308282490535858,8.888744457573145,0.01712332075465419,0.3056363581535223,0.01097324299249057
7.3,-3.649542659017223,0.7943952657742779,9.013964876972906,0.0076380006625005985,0.30192652957583394,0.012566962523825484
7.3100000000000005,-3.7445734857779467,0.6668082083596419,9.06770394077126,0.009310306845699078,0.3083359849618144,0.018421506638827093
7.32,-3.6913214337640583,0.7398951187418369,9.11182273952404,-0.0006684264209416814,0.30204961461767843,0.009234076240304662
7.33,-3.658499813396388,0.8589968141824265,9.072134700163295,0.01121413325970845,0.3029416760674117,0.015531351000420843
7.34,-3.7825909674110774,0.8523541172020945,9.012320730103712,0.003665074934816657,0.31082145038300824,0.01790263688150029
7.3500000000000005,-3.8537533236905106,0.7807164685326036,8.9251392431725,-0.007165215747681088,0.3098917087226202,0.016299864580158138
7.36,-3.807063947824833,0.6306056339500483,8.969909511203564,-0.006031343262674816,0.31650408958919934,0.007558757027180576
7.37,-3.755374384382682,0.8631771882190097,8.913980072722389,-0.0008682050885239004,0.3121672652161284,0.008501261560443361
7.38,-3.875417982337359,0.749787373679384,8.831471051735225,-0.0066212666861421125,0.3123023080881605,0.009649118783743279
7.390000000000001,-3.955705620730915,0.8449574960193331,9.055661852889232,0.002903744815256138,0.3102129948238268,0.014691836706855366
7.4,-4.047885462182356,0.8079842120545285,8.993646157744866,0.007403067386700867,0.302972941475539,0.008118761776088917
7.41,-4.037493253514363,0.7989352030194561,8.97554946876019,0.011220980832015528,0.31091619579160645,0.009172309080244778
7.42,-3.9031882973160945,0.8154513126145844,9.02598221690777,0.004916657382971762,0.30833334648268546,0.004729394415014437
7.43,-4.147240084138257,0.8454387810287121,9.007023373272997,0.012455504343029012,0.31905593754294914,0.016944339173612794
7.44,-4.097503524729014,0.7006793477867398,8.967192618205646,0.005032872908386398,0.3160926758684121,0.012802373576358765
7.45,-4.0532554483624175,0.8965843816238226,8.98992065887661,0.005401457185645853,0.3204930603165627,0.013171472922970155
7.46,-4.144035773566736,0.8550590084161341,8.761782435457276,0.00768582172451816,0.31099355922845895,0.01176610899191275
7.47,-4.202809141113603,0.8394280799817672,8.857532740904018,-0.005821273556669736,0.3197653233906735,0.007183723787228476
7.48,-4.092781317798857,0.7958544145401426,8.8786694543942,-0.0028990510960671444,0.31540432618330627,0.007516686624497622
7.49,-4.122833567952202,0.9304981440733102,8.769295168763692,0.00700947843379378,0.3081852607586999,0.003575816252974537
7.5,-4.296188110134878,0.68863506977378,8.69357891479734,0.0034268442724127183,0.31863945601680055,0.01118101931423676
7.51,-4.19238231712711,0.8185810357881919,8.859327896720501,0.0007509796038262621,0.3144444482661675,0.014310652200776567
7.5200000000000005,-4.322900505231458,0.7229479631177973,8.778797893518758,-0.003728431595302127,0.3189553460808696,0.010479814058786988
7.53,-4.276071573831048,0.7264012899427261,8.740222852695435,0.0059444719221777,0.32418103162404266,0.018873221258762313
7.54,-4.2377108832945405,0.8901711673472843,8.654301098123623,0.004129505739341163,0.32208346865736664,0.005481741375773303
7.55,-4.346875848755098,0.8746126329771862,8.79137162148381,-0.004344543536683094,0.3267046959186574,0.004787883988251862
7.5600000000000005,-4.371190947303058,0.7750636208446898,8.719653399350147,0.0036168974250888183,0.3184282471031657,0.017441399590859018
7.57,-4.562432451453064,0.7518220238488824,8.752520239178008,0.0024453572017163936,0.32375705587399506,0.0071685186705024865
7.58,-4.4121318415899715,0.7814215599656033,8.819981259467786,0.003458893611814273,0.32924716832990714,0.002365196195914878
7.59,-4.479566382438542,0.7761093630875604,8.613584910358696,0.0008015995566121089,0.3228118122517775,0.010213980451956319
7.6000000000000005,-4.587078134385367,0.9378772264346142,8.60771537767886,-0.00016379912104507572,0.33006970361456106,0.003825228690137608
7.61,-4.461519721962139,0.7021944246951202,8.780863011573397,-0.001450362971390882,0.32373207693326606,0.004924493735024914
7.62,-4.493263840878355,0.7539156027412882,8.589899157373546,-0.0028892888643421094,0.3214264006847017,0.015265610261770188
7.63,-4.631553744697424,0.8673120454738188,8.651642073405013,-0.006964459887440159,0.3278718549632844,0.009825923244761631
7.640000000000001,-4.629571365690892,0.8963101648272671,8.701524864722566,0.002292924571405411,0.3261870916584954,0.0002502603490683571
7.65,-4.691868095410437,0.8166065709747865,8.64826817393267,-0.013419032273990642,0.3290218761803504,0.006184040659255828
7.66,-4.693256461959604,0.9042231020173056,8.623031657358897,0.0037306040430543,0.32855301596557074,0.00982567671378814
7.67,-4.568519510261184,0.9058382980055477,8.486484333114172,-0.0043475600935856855,0.32847067132550745,0.007329843464921655
7.68,-4.672687363064381,0.7337407614475909,8.563731538613716,-0.01343727384499226,0.33796318641372225,0.0020675819653979224
7.69,-4.751395142525081,0.7759972786170907,8.63431785088721,-0.017783249494609556,0.33122065693537944,0.003846856597201596
7.7,-4.820420422957284,0.9387521905261494,8.455862878389201,5.5714671546584944e-06,0.33362849121079186,0.010430672668955126
7.71,-4.865765396497573,0.7418691033711515,8.598630842733929,-0.0019840964881874795,0.3246593212834025,0.0011743201024099694
7.72,-4.809734778491165,0.8673480480644449,8.440585269422163,-0.01893886756991663,0.33553015773921535,-0.002482332847468973
7.73,-5.030280839192949,0.5735288901474442,8.543903159918992,-0.003980965490926628,0.33230903780343496,0.010313488385767844
7.74,-4.846148189300829,0.9291747951223066,8.351109371746738,-0.005052841117922935,0.3258702660334617,0.0019712352724151113
7.75,-4.9452548060471,0.8497235018294995,8.449799448278833,-0.0020186473488193737,0.3379807734253529,0.013643268889823335
7.76,-4.978810450977974,0.7240040262124042,8.449349835763748,-0.009402227711276696,0.34237633459235756,0.0012037258747600497
7.7700000000000005,-5.027042678359114,0.7612398518166065,8.470528110079062,-0.006434246280273135,0.33225436441111555,0.010698491969720905
7.78,-5.078487539537297,0.8014175249257349,8.448513629148625,-0.014056399772054931,0.3383533703267243,-0.003151150223853985
7.79,-4.97235511052992,0.7211551791027635,8.434908031619399,-0.0006242906808589061,0.34074181322046115,0.003134380303759789
7.8,-5.0848508519386755,0.7516166387583598,8.480209717550835,-0.009904172767073696,0.3317250485229783,0.004958817422870688
7.8100000000000005,-5.158190893665363,0.7212560287261874,8.229962215484884,-0.009073985360635167,0.33696572979992806,0.002602387446915327
7.82,-5.046531620041999,0.8389118429220886,8.312987703705504,-0.007902642924571601,0.3403921883695,0.007505529619022918
7.83,-5.140649020314011,0.7586964789520639,8.23151857620794,-0.014389398223529134,0.3416280080571317,0.003789128870570663
7.84,-5.132663848178194,0.7853692114192784,8.406076610688803,-0.009835140868768476,0.3435214197534541,0.0004629001520752807
7.8500000000000005,-5.255599374796553,0.8424675398750693,8.308750454335971,-0.005880320445266399,0.33959302752107356,0.0002253619500809775
7.86,-5.043918421125225,0.8891769730627164,8.31614737869772,-0.0073562739239357725,0.34465712414667643,0.0027638617143061896
7.87,-5.260926026524168,0.7694908521805088,8.23407361004776,-0.02401692383264995,0.3411021790214118,-0.002508571013908123
7.88,-5.1636192699844035,0.7946313667556723,8.127539990379432,-0.008663151726394471,0.33523953322991046,0.002061642391006368
7.890000000000001,-5.295742660355635,0.8689871990772937,8.141381083573643,-0.008492087103116691,0.3340591140000001,0.002963762761403023
7.9,-5.305468333021567,0.8312690237932608,8.186660417591456,-0.006836051109952055,0.349313116816461,-0.0022065980885856377
7.91,-5.3638188729583485,0.7039275820822143,8.09883421061505,-0.008668039018328612,0.34721139490786324,-0.0022990326335627755
7.92,-5.42168803869633,0.7574484680490051,8.107163899661671,-0.007928830719226041,0.33459884621667796,0.005151494696580725
7.930000000000001,-5.483923386061041,0.8469017759739859,8.029879283651171,-0.006305453172281427,0.34583136002698484,0.0004331725679077268
7.94,-5.538088318158861,0.8082322429703819,8.018255056065662,-0.011158810026236858,0.34799829436450014,0.0022619902866786237
7.95,-5.4851322773635705,0.7093715096707431,8.14585284742764,-0.010042792438463186,0.3316223262571298,0.001958914198841412
7.96,-5.516065754504673,0.8826086198951769,7.987776637637235,-0.02626727843889904,0.344985076776206,-0.0007281532945097196
7.97,-5.677127311067275,0.7071579591068821,8.276894595239153,-0.012155220046741824,0.34760327792163037,-0.005670015913128779
7.98,-5.736809406160038,0.7708116691427164,8.016194444189976,-0.012869303685429623,0.3437271713483169,-0.0013251161213726603
7.99,-5.609270169408004,0.682275332877207,8.057190260988861,-0.020858845823115764,0.33439354240823665,0.0008207213729947266
8.0,-5.584337784733196,0.7777368767168235,7.887399609947874,-0.014892936537716128,0.34366960669959556,-0.011082344856643939
8.01,-5.711622158208529,0.8334168885743742,8.093847594701044,-0.013691261884523378,0.34909684455911816,-0.012899827010373361
8.02,-5.627305006285112,0.7157859166663372,7.984766481148429,-0.013072859335059753,0.3522405819632317,-0.00792730177576919
8.03,-5.657373541257032,0.7565819935014703,7.927918389202669,-0.012992670076406237,0.3417272976063894,-0.003850148041506499
8.040000000000001,-5.740073463895922,0.797052186150318,7.9276359123424305,-0.008322016954032344,0.3508833949609833,-0.009256219935509749
8.05,-5.692996914480317,0.6816261083300619,7.948085680693082,-0.009451162148219186,0.33701248930020583,-0.003760565347979221
8.06,-5.827371988864089,0.7145816470255583,7.9891965087130705,-0.016055387049502913,0.3428334398439197,-0.004068241047433052
8.07,-5.7623941156261465,0.7626707262229079,7.95439885996547,-0.010368508916704919,0.3362635433408072,-0.007314188487665362
8.08,-5.889492006455718,0.8110412493472375,7.630954914888154,-0.0005139869438931053,0.3500920265869011,-0.004141479244073755
8.09,-5.777275853468058,0.9588445889325046,7.890341640465959,-0.008749862496898929,0.3483656592728223,-0.005811361282879053
8.1,-5.937073773306708,0.7038934486978738,7.745353383991543,-0.020480836449096006,0.3476011780802025,-0.013743787375561846
8.11,-5.910896867507603,0.765676477319271,7.791593329374891,-0.016572071283446517,0.36362617293027083,0.0012645771795613547
8.120000000000001,-6.0528437800492565,0.7857833912625647,7.710613824695831,-0.019266389108624337,0.341795852586931,-0.0035892957720647716
8.13,-6.034850087191561,0.843121673514001,7.818064957330052,-0.0075562079814005135,0.3444816237848888,-0.0035867404413859765
8.14,-5.956750680516324,0.7262737454165561,7.656021387012505,-0.006609170633813794,0.35012138130511233,-0.002995719745555308
8.15,-6.100067477441516,0.6651485447782796,7.651301080111878,-0.015507071887814403,0.3438961428075637,-0.006435561732885663
8.16,-6.1962821922322355,0.6715418429835246,7.729517500675613,-0.012097392658924622,0.34748419363595023,-0.011684716144110197
8.17,-6.170239421792975,0.7297096837755437,7.706287713987831,-0.01070367890136029,0.3471802443508844,-0.012571679971168218
8.18,-6.093408969657821,0.6920851672492819,7.592042236865931,-0.008946263338139826,0.35401079405473146,-0.006221424554509554
8.19,-6.243322254154076,0.77324797210921,7.6971863179241335,-0.017677715511552023,0.3568360870734016,-0.0007533917581865387
8.2,-6.035144324252059,0.7790955873768016,7.637731934073359,-0.008954673799210036,0.3525157694934803,-0.009927843519800836
8.21,-6.230741536191469,0.772072183964676,7.465958637322306,-0.016967120327448657,0.35595279983722433,-0.01858121865363544
8.22,-6.0986546449512105,0.8410612893228698,7.510781946591185,-0.013758232439189071,0.35067004648699546,-0.0016769846597325085
8.23,-6.169292620054685,0.6375213285206516,7.57280081710488,-0.017726824940390126,0.3512456915297272,-0.011668482932926076
8.24,-6.134488333640856,0.8309597962553202,7.444792523401976,-0.023594369094961185,0.34907336174931575,-0.006054486171449277
8.25,-6.281491849095703,0.8462057327351384,7.545220421330434,-0.012295225725080954,0.3527991718549567,-0.015371547392045156
8.26,-6.342669232497677,0.8289350985965045,7.455856430325142,-0.01484849140195156,0.34972729539606356,-0.013770835098704508
8.27,-6.363120956553308,0.7669972514896114,7.3853740307928675,-0.0187624827332622,0.3467728336410772,-0.0032209306640159155
8.28,-6.402984059528349,0.8566123303864199,7.537879600665028,-0.01820824382667845,0.3465699885442504,-0.01944067091748072
8.290000000000001,-6.523297862419452,0.6285765983350055,7.503508594573437,-0.017442076231579035,0.3536953055125465,-0.0203059494284355
8.3,-6.52741168898234,0.8075145061734875,7.393725328627124,-0.0189745019198575,0.3546995126839821,-0.0012161445805048826
8.31,-6.475228486698512,0.7401358681460891,7.363645256943734,-0.00649428850976933,0.3414995039987672,-0.006168924030453909
8.32,-6.492630284217239,0.7779397825994084,7.27300414549848,-0.018915101491687368,0.35566728832833944,0.005791000148569344
8.33,-6.444633592850846,0.6627383410466291,7.268952587130252,-0.021151858796543604,0.34323893473950495,-0.011611109920744612
8.34,-6.476408989903004,0.6266045332248471,7.363894982958612,-0.01665949219091064,0.3486458637387451,-0.010854001804317897
8.35,-6.432855927424794,0.7851605993615225,7.257786310382371,-0.020499420990112968,0.3527929196653169,-0.012889442912289752
8.36,-6.754714604302963,0.8877590270179192,7.246481752364819,-0.017531960283215006,0.35220614352193924,-0.014189047884837864
8.370000000000001,-6.62674728621986,0.5943157746373982,7.393100352131927,-0.025905997010911633,0.3474146227101009,-0.01289615642508532
8.38,-6.534290768485083,0.721285374177038,7.088826460635706,-0.013671528028159524,0.35630119305752445,-0.008182630518501812
8.39,-6.605465510442995,0.9095058401720265,7.339215695470527,-0.02358561604498712,0.36083031478492866,-0.00913744836054923
8.4,-6.648107048994255,0.5803825912473519,7.127375593590382,-0.024424007831344727,0.3569088481922419,-0.005874900747992078
8.41,-6.879226252084897,0.7117841769668117,7.207261989927058,-0.021500160744595185,0.3564645014655659,-0.009650010730815128
8.42,-6.711088451437814,0.6896000200654713,6.996602184485379,-0.02638031276454552,0.35640954031706734,-0.011482593541817313
8.43,-6.774576610229252,0.6751280186701932,7.045838794140473,-0.01574301381317526,0.35122311790581207,-0.018457758233058296
8.44,-6.728997429749005,0.6903590541395929,7.049001215108102,-0.013143601383911303,0.3528260629782416,-0.010477560522890636
8.45,-6.907716125947775,0.6868617699232648,7.071398390357494,-0.02916128588138451,0.3539555865017872,-0.011589053514116685
8.46,-6.834929819571686,0.7850705650284245,7.025449999424236,-0.014195981062156941,0.3479988776208499,-0.011581393304192623
8.47,-6.856223105436125,0.6141966255577775,7.051169722451879,-0.010163891377140733,0.35289022907830947,-0.009902386859158143
8.48,-6.880882841702515,0.640266167239854,6.804889846628167,-0.02551603173598387,0.3460168732127404,-0.004071918708062474
8.49,-6.921432389717135,0.6672723952794429,6.997481621856418,-0.027794810447188144,0.3491367234619079,-0.012415457045898415
8.5,-6.854416004126152,0.7326510142924458,6.921928840581175,-0.021993336289834645,0.35495957591150346,-0.011909387633668405
8.51,-7.043523029185413,0.693750311234708,6.7917968897194365,-0.022175357013463508,0.3505354860623824,-0.00038101438345223247
8.52,-6.988637543932865,0.5752502923301116,6.842503140197512,-0.020179790884435517,0.3612788526235309,-0.016183883624517326
8.53,-7.136273215279014,0.750439853606468,6.718252445670779,-0.02515214230705418,0.3515902175343061,-0.013741909148725414
8.540000000000001,-6.978690267001443,0.6278837677869051,6.78218279425386,-0.023236458518545593,0.3535855788495431,-0.013060139859522615
8.55,-7.022998102071245,0.7475417051403842,6.810791467419619,-0.021089877608660174,0.34487872656980834,-0.013452077268912151
8.56,-7.043483035613393,0.735788525951887,6.699211903154842,-0.026844652627412563,0.34986457894601575,-0.011173485190063295
8.57,-7.023007414174367,0.6422939974967884,6.8023766194173785,-0.02312265660989904,0.3520518823935044,-0.015063206494522844
8.58,-7.069771689617981,0.6983337363840898,6.886866606518643,-0.028190722556395938,0.3551950403697206,-0.016801405746266627
8.59,-7.222733964932227,0.6687942157980945,6.690771811062753,-0.009527215526873623,0.351608017694534,-0.019953787484602945
8.6,-7.154947537176054,0.5010480735974436,6.647333053768594,-0.024225377203756615,0.35641896076809915,-0.009580646739039786
8.61,-7.240577617198673,0.6523057045919932,6.568229704781249,-0.030132169216766015,0.3539056449554127,-0.020960914237411483
8.620000000000001,-7.256871409153614,0.582056564460181,6.648248447100046,-0.01566998753525216,0.3457514465554867,-0.024000665256888588
8.63,-7.257006274246888,0.660222315529497,6.596446465668817,-0.027092947289520202,0.3511524117966709,-0.013038958588994405
8.64,-7.186999084622314,0.4998392064643557,6.524044871596036,-0.023975428934301313,0.3474549593267363,-0.006359945477059441
8.65,-7.344188063684242,0.6501971672374749,6.572575352170838,-0.02818294304780574,0.34269421935752287,-0.017296688335970225
8.66,-7.23402455791224,0.623787557946842,6.434840532260892,-0.020779118849485613,0.3501484716233211,-0.017840174916455873
8.67,-7.327349992510908,0.7096191380898124,6.667483073850146,-0.02145117141344694,0.3574698278969062,-0.017953484215782054
8.68,-7.444204098999988,0.6501472070252955,6.459840217688468,-0.03115869572655449,0.350655461647933,-0.013559669090459659
8.69,-7.356032197795715,0.6826871883086443,6.448795255926855,-0.028478860232438355,0.3488167656055426,-0.021681933888627693
8.700000000000001,-7.264710896855738,0.6405857937200987,6.381713014004198,-0.030764364026270717,0.3659119249596381,-0.02118304733341349
8.71,-7.464329549274517,0.6699247212879433,6.421834118850816,-0.021506228793478133,0.36011208114397725,-0.013413154332920375
8.72,-7.536931961318405,0.6132328427957658,6.3724930571245455,-0.016129140163850125,0.3439184551189424,-0.010056895514920216
8.73,-7.460382488275043,0.6979285073321304,6.3136907648525336,-0.030855707841037257,0.3544883354838902,-0.01292175329693156
8.74,-7.4192349804790245,0.6269345047839463,6.247783876818824,-0.03460964424966445,0.3546503767146061,-0.014196881479773436
8.75,-7.596383218052828,0.5819932597145813,6.232284590289042,-0.03440168361330147,0.34627769155036103,-0.022106186451752816
8.76,-7.574136587743677,0.5630473673423168,6.113257862431337,-0.017043747485038507,0.356434459501222,-0.02045111825654414
8.77,-7.541258233549708,0.6525883937890482,6.312436339594465,-0.03141854345329268,0.35543100613203904,-0.019412810387936002
8.78,-7.691730074247236,0.674154407864562,6.294080570108524,-0.01455367320468155,0.34376363132531906,-0.013294220070032994
8.790000000000001,-7.63934922484233,0.6759090261785705,6.04679132804381,-0.033973644426340266,0.34566774318403953,-0.016507800623302243
8.8,-7.679450035203012,0.6629663465340132,6.220133795161127,-0.024827360773178625,0.3574189946143027,-0.014935553749256883
8.81,-7.747007512400026,0.7162988881704317,6.063063569963953,-0.023437482181014935,0.35696475145679385,-0.01484157268201722
8.82,-7.790734033259619,0.530743936242434,6.190732556057667,-0.02899838546777114,0.3492580623413956,-0.013439472538937514
8.83,-7.636613850395399,0.6234626885416225,6.041600528091504,-0.02987818075876358,0.3529068990310309,-0.014572581289930539
8.84,-7.7340743264988,0.6846714122294093,6.0212973243375325,-0.03273408307144862,0.34457286332119313,-0.02233921643658386
8.85,-7.75634557807338,0.6937303018875569,5.94048454397879,-0.027693192370114493,0.34482768951728127,-0.018850386445160627
8.86,-7.8763098443840915,0.5743057226126084,5.962614879517862,-0.02609279394030717,0.3489640737222937,-0.023642373358574234
8.870000000000001,-7.689615306076546,0.6056762154077912,5.967149991418825,-0.028997669703670778,0.3449885343903411,-0.016661212026585614
8.88,-7.759039093470997,0.4459905599607779,5.881293898779623,-0.030382877213719645,0.34858095288074314,-0.011881716317536095
8.89,-7.8794503679012875,0.5427828451961623,5.8564583597074344,-0.03327102331969498,0.34528007766972024,-0.014090541782302877
8.9,-7.9225323654923985,0.6137101403929762,5.734326316021586,-0.03222417545081188,0.3450776124321718,-0.009664767398442676
8.91,-7.88061318926699,0.40023860925251986,5.683536891230826,-0.029400293312838437,0.34949610703866313,-0.01625452828386822
8.92,-7.865515508572965,0.6661601408612579,5.773203343712277,-0.025247698576172133,0.33796252385857395,-0.02274751520695892
8.93,-8.043664761247355,0.548021508293767,5.785546538782872,-0.02930240707602978,0.34612051904403657,-0.02294973571188781
8.94,-7.934388867755564,0.4470319179253051,5.871137739263053,-0.03154055995859385,0.3430483410415743,-0.010454683011903807
8.950000000000001,-8.03850489899071,0.47358824817974376,5.647170007770561,-0.030510152315677087,0.3473257715077102,-0.014786643677836305
8.96,-7.753208170359944,0.38047752129694756,5.756311961873093,-0.03310366379184605,0.341903558822139,-0.021667737131508914
8.97,-8.051398660212424,0.6919806273330099,5.747700695253515,-0.030348095291321313,0.3512519212536015,-0.02621359438819982
8.98,-8.104769097376323,0.3797576561804801,5.597026902224903,-0.029800494635059644,0.34466553737029837,-0.017984529322660578
8.99,-8.130698791637688,0.6150140887352785,5.644773837494223,-0.027087474941990913,0.3343350371083185,-0.017252288943506305
9.0,-8.132222639259385,0.5157329736115441,5.640937868588624,-0.030439883632242475,0.33918196071409223,-0.018855095811577443
9.01,-8.17899670575867,0.6362881298192331,5.554313525107916,-0.025444052796832674,0.3404410315837779,-0.02157927299121494
9.02,-8.136766248702404,0.6110996271225331,5.486492915945424,-0.02795412112705858,0.34078868202847723,-0.02891435336753629
9.03,-8.140298510667051,0.4434073905552348,5.5184354460143314,-0.03726827709954246,0.34695130602407515,-0.019561271766106576
9.040000000000001,-8.127807498311853,0.5869294053557335,5.565277329131351,-0.03155471618553849,0.3380791560601277,-0.028045307488574613
9.05,-8.18729429686967,0.4817949837995396,5.4691377156458145,-0.03331678429117176,0.34498179812952057,-0.02230815378064334
9.06,-8.155667891701782,0.6225971220006061,5.460295355202956,-0.03202690815244644,0.33813264369782736,-0.022475383377328503
9.07,-8.237731455803367,0.48129626550161647,5.465747775354486,-0.03297067517119904,0.3339869984906255,-0.010532579887298395
9.08,-8.162546233670254,0.40871284764673377,5.342261796288083,-0.031440157861437154,0.34884559600293435,-0.024976399784129154
9.09,-8.128404252324103,0.6299118470393592,5.299603683520629,-0.03351435626346884,0.334721143356292,-0.020513765867885385
9.1,-8.227641537904441,0.5674029457869156,5.409369224064721,-0.035998309225336825,0.3296394093871191,-0.019661518762127277
9.11,-8.21934070879814,0.5312560654629915,5.2682524942346305,-0.031763951446611795,0.34661990373561335,-0.017703671418347677
9.120000000000001,-8.290684879890774,0.4679525125718659,5.253004352816403,-0.024332737521032197,0.3376861299256141,-0.019766574894336492
9.13,-8.317274302337685,0.5925469684552811,5.395561181744995,-0.030390939905839316,0.3385697695998612,-0.019537164399196148
9.14,-8.487189489551364,0.5608948966697165,5.221665742065872,-0.03062870531646906,0.33414519269196546,-0.021695053968351228
9.15,-8.346964403413722,0.5796620508171196,5.1527675337618595,-0.02248236718707356,0.33939675056881724,-0.026201090783991153
9.16,-8.341885129806496,0.4424427347253461,4.979632378440135,-0.02502241041310034,0.34029143159286696,-0.01720476715114572
9.17,-8.335769541026574,0.3806553099515494,5.088588124429662,-0.02893380098041803,0.33104625421466655,-0.032575996525446516
9.18,-8.384451955757255,0.47651181103322343,5.110198055262806,-0.02962189519709288,0.3390103835678016,-0.018667868826223337
9.19,-8.287803693555142,0.3629665518531271,5.111777084459558,-0.03025242443088376,0.3291379175780799,-0.02751886242353707
9.200000000000001,-8.460165257035628,0.4281888466683677,5.103724830494482,-0.036577282781577396,0.3305607450849612,-0.023103695282380963
9.21,-8.327923810262554,0.4787802578951749,5.001136209482269,-0.034172934321350615,0.3408029420991506,-0.023830630370426893
9.22,-8.328978956705896,0.4911980047563354,4.974653151614471,-0.02123556827429287,0.3285579998397175,-0.021890675978979535
9.23,-8.549499950373558,0.5471739468279948,5.094618729934029,-0.025506467441650544,0.3394429121618393,-0.021146057811436154
9.24,-8.496691074535722,0.333899559082216,5.094338024539247,-0.031626048922656094,0.3303437794708909,-0.013551614865535761
9.25,-8.561739732354216,0.4967368060282673,4.889631062948842,-0.030891259743644744,0.3319595267448088,-0.02747872100654371
9.26,-8.49419959136148,0.5447281145300966,4.8730671717150615,-0.030321624967304263,0.3265170227678417,-0.02038580917273056
9.27,-8.566413959270864,0.5171877139011186,4.849877852089711,-0.03085823721793409,0.33664395396489294,-0.01682508056986591
9.28,-8.510691307493431,0.3741811386256282,4.819081748299223,-0.03708431346706827,0.3289392802522179,-0.022182760347149756
9.290000000000001,-8.626902681525321,0.2940587986674632,4.737792485810535,-0.03356107187901663,0.32336639036369563,-0.020256845949073583
